timestamp,accelX,accelY,accelZ,gyroX,gyroY,gyroZ
00:00.000,-0.9126162456076666,0.3670955444343298,-0.09666722739432579,24.041404755197636,-6.161022791766647,2.3896762544538093
00:00.022,-0.9134206755337508,0.4135905721963241,-0.12164999335665627,10.102527212939348,-5.158321710205934,-1.79895215064271
00:00.044,-0.9500430120461764,0.47432092452071667,-0.1277397543468774,-6.807199273416165,-5.055505674032381,-7.6761635941221495
00:00.066,-0.978544199038166,0.55023910305533,-0.14960981967230755,-22.29898625580478,-9.99035577422903,-17.84552178943805
00:00.088,-0.9163191838618704,0.5714725259042911,-0.15747990524511285,-39.33814505359731,-14.858571020192015,-32.906821108887556
00:00.109,-0.9735773572534092,0.6116696054896217,-0.1819572998912227,-56.45434204602945,-14.168952215584929,-50.317782850866855
00:00.131,-0.9871342883230405,0.5949508609739445,-0.1814741238871342,-58.09441666256175,-9.68921896758187,-67.91523737512637
00:00.153,-1.0397507075460448,0.5204123174404149,-0.22799888670595128,-33.88179804632596,-11.137966751454613,-84.15981014807085
00:00.175,-1.0520611979450705,0.5548085384020142,-0.2429788328554736,-10.863069203815275,-19.99495140605323,-106.38196720650465
00:00.197,-0.9640746502218881,0.711013889651278,-0.24709211589079239,-14.599142493632915,-24.165892208702036,-121.31210810066275
00:00.219,-0.9912457063706723,0.7949255524872728,-0.2391151087658991,-25.260721196713998,-20.01977947388412,-127.57012178847282
00:00.241,-0.9766262261882028,0.636373040243993,-0.21220035983530758,-18.918390423063546,-21.440510716744594,-126.23134194095398
00:00.263,-0.9472250587850604,0.5778504125500625,-0.2214881344015543,-3.3824040018196575,-28.591325864658184,-127.47485889174986
00:00.286,-0.8364790134396177,0.638833302086182,-0.2069368263422857,4.989903390096027,-28.931001356817966,-128.9062686106873
00:00.308,-0.8210190279123815,0.656858795054473,-0.1767573555517969,13.209286887111608,-28.373612020897887,-125.70361164096781
00:00.330,-0.7824026094148401,0.7069724057583446,-0.2368585849830506,17.038170931699252,-33.04022341460132,-126.11877763634017
00:00.352,-0.7051197603639653,0.7749045102514198,-0.20630309913993258,21.802253496623084,-33.31895003173672,-124.90630585754515
00:00.374,-0.6669397878454716,0.7886887140073604,-0.21293671807794462,25.916607310898204,-29.867033029609363,-122.11007879448718
00:00.396,-0.6564290890459499,0.8302159632557844,-0.19195669439393678,38.33655636807387,-26.080518097118226,-120.26653062555665
00:00.418,-0.5784719483300673,0.8073613633511871,-0.18702778674335804,41.39392980444648,-25.650675756181357,-120.93764610778108
00:00.440,-0.45863987285498303,0.8204381317148091,-0.19574216158065483,50.9335902314908,-19.59851919502872,-121.30279502991127
00:00.462,-0.443405832846969,0.9314136430633674,-0.14717840823663794,32.06050016620122,-15.504023740211144,-111.30171869177099
00:00.484,-0.37532154561177666,1.050633560956142,-0.16033608311418218,7.237256442118757,-11.730922325525647,-110.8831287904205
00:00.506,-0.3569862296067876,0.9880909418694954,-0.13239526129807544,-6.580759528974277,-9.964527291247148,-115.14446043144234
00:00.528,-0.25278879052962433,0.9216659813484592,-0.13272854507434448,0.9022544175355629,-10.187977001985116,-117.41264431528047
00:00.550,-0.17814288889556493,0.9595328859680706,-0.1698930445650369,-2.531238601425489,-8.747019753394703,-117.54037670594309
00:00.572,-0.1764405937889498,0.9714264923433111,-0.18976264695110748,-8.762764317166118,-5.121937772010757,-112.27781875143799
00:00.594,-0.09064618013489543,0.9499847359728509,-0.11036044775722739,-11.24328321973427,-4.733239651097255,-115.97181221385891
00:00.616,-0.10558029574053866,0.9323525337575836,-0.16214620860472018,-6.008200410926477,-8.303331548125906,-117.81414806106505
00:00.638,0.014847974618611141,0.9678640488915191,-0.15914996825069905,-8.987204448025864,-7.092987584327753,-112.06903394536118
00:00.660,-0.0019500521954669843,0.9238918325989659,-0.1709793727763842,-16.173746428219328,-6.379094628990588,-114.88885117640791
00:00.682,0.06675074704232893,0.9113524125966855,-0.14669436279923212,-12.81952318627187,-4.8962404288824946,-114.7226868213576
00:00.704,0.09261802385178433,0.8262314028298451,-0.1541362766400559,-2.1395295060986674,-5.407141760930104,-111.92727952526504
00:00.726,0.18335708278082538,0.8601264249825806,-0.17133038789811292,-5.576351962748584,-3.8994284980173144,-108.66086952493637
00:00.748,0.2122422656414977,0.8806143878185646,-0.18316551700935524,-1.8770370808366081,-1.8434611112810266,-108.68197341305387
00:00.770,0.2558251406812959,0.8929115753574904,-0.14180124858695756,-3.915310400942926,-5.438740622843576,-106.06051813492192
00:00.792,0.3109795374605028,0.8179977946051914,-0.18073526051129357,-3.6104865285463963,-5.167267131111953,-104.7551632663549
00:00.814,0.3836526138548828,0.8514917061947446,-0.15795134960990145,-6.665324313632503,-2.4232741775788345,-102.16843643273161
00:00.836,0.3575532750833014,0.8311257776280951,-0.14032670139992892,-8.6504713741726,-1.4185274830018855,-99.17874286004427
00:00.858,0.44375609114030923,0.7162949222509949,-0.1378571040576801,-7.868685611418901,-1.2671439546960388,-93.56290345045107
00:00.880,0.5364740021072723,0.6770426467299758,-0.14759978227409049,-6.148186983243636,1.7908113185920873,-91.48975395428795
00:00.902,0.5283932358703574,0.6772055769773173,-0.17957311957203148,-8.708388039670647,4.662073951511285,-88.70130729772613
00:00.924,0.5496996868683643,0.6470201679711426,-0.16740043386557826,-18.37283458409624,5.243038626367978,-83.17870548951286
00:00.946,0.5049507343032581,0.537057946360306,-0.15714252128841272,-21.90149853091181,3.762093284499504,-73.63421007769644
00:00.968,0.5822394414324233,0.4527378713860643,-0.17216236946027583,-9.877933956682275,2.824479105142129,-62.21093643144913
00:00.990,0.6056070210126012,0.48707919193347726,-0.1581954382078189,8.27726182973448,4.244905758870843,-52.5342189913331
00:01.012,0.639646322920657,0.5691826185099833,-0.1140842389112344,13.817378821967031,6.208142684195745,-43.53040382903912
00:01.034,0.7034856230493248,0.6708860181337669,-0.1541348925266813,2.2801867839672334,9.519827677957142,-36.20127876409129
00:01.056,0.6272038602664942,0.6759508642846987,-0.17879322756302402,-13.539376608377324,8.824236898937588,-31.332033526963105
00:01.078,0.6600612053931523,0.6079719950649435,-0.15771601127695323,-26.886029458730718,4.048391209956206,-26.404340204893384
00:01.100,0.6704316319543889,0.5450564311861642,-0.2566659945496998,-30.98198968135804,0.03759902746666894,-19.683771447394513
00:01.122,0.7461144172904732,0.5301436756375486,-0.21732039323353378,-27.642155499358186,-2.662093855913601,-12.514746246480945
00:01.144,0.6844332254456219,0.5543212961669551,-0.2502360292556318,-24.977837452596248,-3.8933908007710447,-5.047230131351656
00:01.166,0.7033426808509958,0.538368578828457,-0.20713923978320223,-26.879451688452427,-5.056096757329941,3.0142511386357103
00:01.188,0.7115257330570111,0.3955757250146556,-0.15426724269949343,-30.723071674745608,-3.001315593640732,15.641477034458424
00:01.210,0.698174636315248,0.31916778874063345,-0.15832324155673128,-26.442175984623802,3.907712518993947,35.2982591627134
00:01.232,0.6324006042527042,0.34346110092382287,-0.15708722172327833,-21.63347219369759,8.868511626511708,54.1944440821307
00:01.254,0.5743815723273819,0.3949793885762106,-0.17880273095197108,-17.42325781587821,11.70723591204736,68.8697374488411
00:01.276,0.5303799027666141,0.49474284066629415,-0.20485605174693192,-3.9292423141843598,12.13478519565565,86.09961872932713
00:01.298,0.5029647820813901,0.6585374378711392,-0.20538350091469326,-0.4269931302645533,11.69315912825899,94.93733066706496
00:01.320,0.51262465010717,0.7986643972576808,-0.2459811012699047,-11.251085404940222,11.839902443616467,96.2220241833822
00:01.342,0.4865394860204417,0.773730087230738,-0.23726644412739295,-14.325981325351323,12.021974656933631,95.13690351484574
00:01.364,0.4537218749394046,0.8234497613531486,-0.26793097069632116,-11.321079954221522,12.398149273245329,95.32772815968616
00:01.386,0.3985160512748923,0.8184856781670921,-0.2673877137757464,-8.598404948559947,13.674608396885219,98.24294355606821
00:01.408,0.35936573002062294,0.7643612470323636,-0.28256630629026075,-12.258401376952214,16.770520246317776,100.30989394335673
00:01.430,0.31347275215134757,0.8966414991390463,-0.306131787159964,-2.2656963265757244,19.225762064391382,97.43512473380119
00:01.452,0.242788962936174,0.9496167358156089,-0.3174963232910773,8.110587670688451,14.388950383635045,99.24186769571847
00:01.474,0.2705373301561681,0.9335292192147364,-0.32644124253367723,-9.804666739194813,12.0512158555444,103.09470505872632
00:01.496,0.30105474122927867,0.7709895866087649,-0.2202784428730722,-43.35324390706285,22.13397863418346,103.63479642139755
00:01.518,0.18087090820975787,0.7813640958768623,-0.3067697340952396,-20.067275691863436,25.466886727838094,98.31726527467093
00:01.540,0.0677570102011391,0.9243553070720517,-0.29937215466036005,-6.359685060831796,21.44949626839279,105.63471464767194
00:01.562,0.10837380122099549,0.9810030445468338,-0.29688159649800083,-36.383906695537846,20.877625090687676,103.9388889745109
00:01.584,0.05557775570017012,0.8565515552783799,-0.31234006011858884,-53.925753682000206,25.49314581566279,92.18971222199046
00:01.606,-0.068422231117055,0.8916983405065747,-0.3074307571722802,-20.896925318629147,22.761460594302267,96.52747835348725
00:01.628,-0.06920101357583835,0.8694050313792426,-0.3279437736527348,-10.798039597293661,21.391604651733555,103.99109284197469
00:01.650,-0.06888082240733047,0.9883974235637721,-0.34681741473724825,-8.99288391851097,24.265944919922312,95.21660021153494
00:01.672,-0.2372472660232763,0.9235424354276441,-0.40166843799855684,-9.913503547482689,22.605740996556616,101.63092329564314
00:01.694,-0.19352382307813615,0.9174906520541443,-0.38889182201627454,-8.195593842771796,18.51593370944898,97.45120197536815
00:01.716,-0.24456621707245552,0.9607005885619674,-0.3551472403230781,-14.749541970774928,22.894519702132477,95.12207948845287
00:01.738,-0.2741593923259395,0.8971490787978981,-0.36560708352323007,-11.379947823617872,20.47465508651871,94.77585292315369
00:01.760,-0.31037794101405924,0.9115074504318657,-0.3720387145930025,-0.6897237338734242,23.3688131554444,94.1999796761527
00:01.782,-0.3974890379033306,0.9529577286195422,-0.3601978623634237,0.7689821303013475,22.673612967838746,90.13166578183491
00:01.804,-0.41487268432159363,0.9838032466814907,-0.38268334612866806,-6.400111834964381,16.917163984721963,84.32531665414166
00:01.826,-0.42241097555315654,0.9183354243996373,-0.40035578008306316,-14.697693615334456,19.033062758912425,86.99322947224071
00:01.848,-0.4324954678909451,0.8294225762538664,-0.35672884011857564,-13.709676755327838,22.814601850187927,86.74886193386769
00:01.870,-0.4942835382930754,0.7205123637080597,-0.2917822129995172,-9.671883673596193,19.17307467948369,84.96441220841265
00:01.892,-0.521244539151114,0.7771323181463822,-0.3363104883330365,-0.7534032553276737,15.395374190346567,87.73846012860263
00:01.914,-0.5641666378339633,0.8340764509685787,-0.4032631721837057,-8.545453349720905,18.346529821349865,90.7894130747256
00:01.936,-0.6290567422540336,0.7987047114680098,-0.3256216000787563,-8.83761996960374,19.800286993479727,89.49029095028644
00:01.958,-0.6525102606367628,0.7710216034660232,-0.29978126461069565,-6.168795317698057,19.09535551218795,85.33931306814235
00:01.980,-0.6651228939534565,0.7716943914664643,-0.33776860864522146,-0.9778523400054125,17.798438383174123,78.83466209195899
00:02.002,-0.7596346888950666,0.8067370934726085,-0.3689631577412763,-2.3403816898588925,17.032722744895768,73.89812782368293
00:02.024,-0.7312263821378638,0.7531639891581042,-0.3250721258057619,-8.72462933558769,16.085781036205518,70.67690414470857
00:02.046,-0.7754107761390917,0.7333539299056252,-0.334528759154255,-5.972971140724012,15.683639480603587,64.8723443727844
00:02.068,-0.7646727741270329,0.687849048578539,-0.28641987548560627,-2.368758052743545,14.414650744382518,58.38603929235502
00:02.090,-0.7666804130344386,0.697601041327954,-0.3133222976080538,4.420063338145597,12.55181505915012,55.159392217721376
00:02.112,-0.7649280653811894,0.6503733883402252,-0.2812733250799564,-3.468496903306459,14.733019289689334,55.85803023394567
00:02.133,-0.7602431203812129,0.6206369958545253,-0.2527105329279484,-7.253738967361351,14.196920200874061,51.757449887801236
00:02.155,-0.7907568269860457,0.6358074876124342,-0.2403659344777983,-9.412749976886554,14.0247670669911,53.91890587420067
00:02.177,-0.7949343435496496,0.5794891937494081,-0.27588957941557546,-6.763068393153891,13.685836939595152,56.71235839584674
00:02.199,-0.826226702749141,0.5395170400273552,-0.261373195017833,0.4092312611882248,12.589327563428037,58.6167528556674
00:02.221,-0.8381264154722097,0.5124210370744812,-0.2395861515622314,11.787896644268978,12.992292215824742,61.35051558144694
00:02.243,-0.8822271586694223,0.4951508586097953,-0.24222446818744817,25.43406882298566,12.989769236639631,61.04869892994714
00:02.265,-0.889049532671071,0.49847807402268934,-0.23758468601398466,26.79758521169194,12.752180500073154,53.210691525402666
00:02.287,-0.9030207192702225,0.5327133249430163,-0.27999373650077714,17.35865204858907,12.067568067553509,46.40074711696105
00:02.309,-0.8974270142525731,0.5182484939580964,-0.32359939304572755,6.070728562327275,11.658004255757504,42.7728839379352
00:02.331,-0.9508642750313655,0.4613088736494769,-0.3146690879408934,3.1898487996704783,14.05807225784346,37.01336681377419
00:02.353,-0.9792992945709176,0.4239761559984479,-0.30094649579593774,16.60758815417079,12.939305988881092,27.650427456774096
00:02.375,-0.9898387345126535,0.4058840258972288,-0.3165842422189111,39.596814399675594,5.7996711151431795,17.029730323909636
00:02.397,-0.9303586782425468,0.48200768584205117,-0.30597213408399954,38.66458901832337,-2.7094191902761025,6.942058992879828
00:02.419,-0.9190897501623287,0.5970183309379672,-0.27087469767943695,4.708575531783154,-3.3573930762001867,1.082900174331442
00:02.441,-0.849634988769073,0.5135157534939508,-0.23380267176626515,-29.26185141328988,1.4659642019383732,4.429544710104627
00:02.463,-0.8621921070254349,0.34408736696409753,-0.24163729869819303,-39.55816214081584,3.852526620847526,9.181812572002299
00:02.485,-0.858946722693667,0.25166861327353574,-0.19313019029429637,-27.447930661072135,3.0843806096206374,11.131173617632804
00:02.507,-0.9058652561893524,0.3089933749291702,-0.18366072815154033,-7.777235357936161,0.2842988994816087,10.71482272267784
00:02.529,-0.9480528473497929,0.37911545534005775,-0.19688508845569272,8.19987160488156,-2.2210063534276454,8.530026917181736
00:02.551,-0.9360273145228513,0.4556122794970629,-0.22371960273424368,12.224233711210662,-0.7251459410701651,5.548226620049041
00:02.573,-0.9419031228047177,0.4781111557470832,-0.16415676750438066,6.029532863696162,2.9730865333055454,1.2620976584331691
00:02.595,-0.941717971952621,0.5363811024071415,-0.19264807542265985,-3.1897966424390627,2.0148453205214567,-3.0524017037731417
00:02.617,-0.9147574470394579,0.43147969366331956,-0.20973619204983557,-11.319676811169112,0.15331120237387078,-5.644240971266145
