timestamp,accelX,accelY,accelZ,gyroX,gyroY,gyroZ
00:00.000,-1.0126965942213124,0.04793703199260527,-0.09913319794463946,-12.637479248405954,8.187313022214898,25.304819907793863
00:00.022,-0.9794080228665057,0.11292827720114336,-0.11754387428625189,-19.34490333482404,12.167637260922074,27.659656969635805
00:00.044,-1.0627528842975336,0.1692242973639252,-0.1388550378569986,-28.74275532539722,13.925685493797916,25.131406884817814
00:00.066,-1.0738846844142396,0.19279792249269959,-0.12325048237452754,-31.15666827620507,10.43407654184697,19.347219365037446
00:00.088,-1.1261488628870553,0.10592011731342156,-0.14015585054461405,-22.5660735029917,2.399903864175536,10.588137510369238
00:00.109,-1.1052912658812255,-0.01475449702625417,-0.19231536876067062,1.2787276487718189,-4.893978457393322,-3.025406645945646
00:00.131,-1.09355004148089,-0.007424661006365004,-0.20222572869814884,28.34010910013037,-11.301908725903973,-18.26438247047571
00:00.153,-1.1015111763225485,0.08695142567935832,-0.21709296670422495,38.44502867886946,-18.05696609259149,-28.704825154291115
00:00.175,-1.0444404080848333,0.21032702642253473,-0.24068023881375789,37.71795935038047,-21.309287003815783,-31.43679630929126
00:00.197,-1.0415445618842774,0.20049975666926687,-0.288857885621324,34.998347211362,-23.172657311370504,-31.15069568670035
00:00.219,-1.057998369427834,0.14690649491957572,-0.33049858226269796,37.646719345760346,-30.535346843871533,-37.875079641410295
00:00.241,-1.1224097214894377,0.10413278398534427,-0.4237273669216182,58.50626257702018,-41.07034604071034,-54.43143320345635
00:00.263,-1.1781165002397593,0.19586695221861214,-0.4448511676330811,86.56099456833071,-50.4443570092394,-76.25717098516212
00:00.286,-1.269926563064557,0.38157706908132394,-0.3956683664639756,101.88063455879958,-63.57490454440192,-100.56716944734445
00:00.308,-1.2557035795331675,0.46293975686003247,-0.35980723789011787,101.15443453966603,-76.00650494253352,-118.88094682028688
00:00.330,-1.1861809032859756,0.49642996491761476,-0.3215646942635564,85.33483809185729,-81.13088504877486,-126.94410430026777
00:00.352,-1.1671336384710598,0.48885978259205815,-0.3872506765304209,83.81117957949186,-86.83278880467567,-137.79196059316556
00:00.374,-1.2321393030595331,0.5223868762827415,-0.4204140895208937,99.09465734114814,-89.59932544012926,-164.03590247156853
00:00.396,-1.2449961106738434,0.7447700292426619,-0.3632934388498964,99.6235499339404,-92.75891290659061,-191.38506561001302
00:00.418,-1.13985565415725,0.8954602261048826,-0.3755708736807803,79.91677122265625,-99.18833372381644,-204.63230214686635
00:00.440,-0.9796287317433832,0.9672822947498945,-0.3929576981064589,56.51517203215319,-94.12853634157311,-205.9739109847666
00:00.462,-0.9306048753851308,0.9272967836796792,-0.414702191856347,43.70475758929488,-80.55204612493236,-202.102975893119
00:00.484,-0.9838156431756679,0.8666349006635913,-0.3695746455528213,46.49489186343822,-77.68939584798038,-205.05344828516562
00:00.506,-0.9577074433389813,0.8554299352400291,-0.3525396551881388,61.11870915216414,-83.71357074336807,-218.58926934648719
00:00.528,-0.8728030022149527,0.8386764287962428,-0.28872740871394476,84.92350840791127,-82.65916619294107,-233.3952196063475
00:00.550,-0.8064219416903495,0.9883704576723282,-0.22610148430675664,103.38561704136258,-78.93473547369462,-246.38413706552146
00:00.572,-0.6632728371291624,1.0935820833365126,-0.1916105692068445,111.05425409136105,-73.09985135306427,-255.14779225075577
00:00.594,-0.5828221009373805,1.1752781670017503,-0.12811692340236797,111.61823367737,-57.81528113933082,-255.68287353216257
00:00.616,-0.4836808775738442,1.2099395430049225,-0.09328920803519061,86.01403885826703,-41.92836945312763,-253.74576452704258
00:00.638,-0.4167254249177492,1.1991604046351607,-0.07390082511866095,46.494914463434746,-34.14023976601332,-248.32906777107172
00:00.660,-0.22253802606245038,1.004955739201365,-0.11688470445033047,31.149489185545242,-24.75127826691745,-228.51462817198302
00:00.682,-0.06251369615014768,0.929555876753959,-0.14958339669351525,19.086354113773485,-20.865730303938516,-214.1945036918046
00:00.704,0.023119321118713322,0.9586214843012044,-0.15464473253647465,8.606485631106889,-5.750541673563686,-208.62476849928294
00:00.726,0.11961512746073073,1.0739869431211517,-0.11641181179176165,3.7699297975713404,12.013340271069314,-200.55422379612912
00:00.748,0.042027481168802935,1.012040108139166,-0.1112428925827026,4.975787020781094,11.415892443041132,-181.88929030426223
00:00.770,0.09999501912586442,0.9331696879978699,-0.04848949725297616,2.187364115627533,-2.284104419830925,-173.76390662999745
00:00.792,0.22211836908624866,0.9809489933667686,-0.12528420893949024,-12.110382924550319,-0.05731625609821719,-178.31878075081067
00:00.814,0.18670342199204967,1.0383637853960161,-0.1205973304815756,-24.397871175700097,15.776641083980643,-172.29703132884794
00:00.836,0.17448063501302896,0.9219427588727798,-0.16509922972615576,-24.806956040232762,15.401637116659888,-154.85039596086534
00:00.858,0.16183751418990808,0.7502793575432799,-0.17127855050220167,-13.025709596096391,5.415392351640495,-149.8924694954624
00:00.880,0.21798925138350628,0.744973131723154,-0.1790996326436168,-1.8091193488687467,-5.289980380809686,-159.58719475204344
00:00.902,0.25284746807224023,0.7028039662295942,-0.2067168936659659,2.953107253561905,-14.28280827567277,-162.76242092132182
00:00.924,0.4249475798035329,0.6302442479950822,-0.13108527988126714,8.866576639232372,-17.69139849424837,-150.48632420214395
00:00.946,0.5262605149100055,0.6090409805457565,-0.0978825337593131,14.135593873753841,-15.580517948817757,-134.0501032466049
00:00.968,0.6402766557105231,0.5298546334300579,-0.10789144527971353,12.721466780172067,-12.75875466887356,-124.44653696629298
00:00.990,0.6415195125883072,0.5130572690500903,-0.08383010352623059,5.16625614422694,1.506570275297792,-111.42433298174566
00:01.012,0.5523910720989367,0.4087635499983694,-0.07510760923274887,3.6613212167197986,4.527106607615884,-83.26112476303035
00:01.034,0.4838317545865815,0.23838347707888616,-0.04213777010760532,7.381422521737533,-12.151552870716472,-44.46685321991352
00:01.056,0.5182779063676162,0.10696488047932032,-0.09418918027117285,6.781385364408588,-26.002144562808684,-14.818081378315721
00:01.078,0.5604835810123442,-0.024563179488583615,-0.10541218369101577,25.05033957698838,-27.94288167483968,3.242666264335878
00:01.100,0.5240714333685907,-0.1830388767365264,-0.10672402741336444,59.425224282674044,-36.89527371459053,78.07454374031084
00:01.122,0.5041218374300912,-0.11459127579558676,0.0027677218738681917,55.508724094556214,-33.38266628935471,99.94007497425018
00:01.144,0.4797594075487481,-0.17481206660722784,0.06007479340929493,79.60811289537283,-1.063910999924545,15.200839074811126
00:01.166,0.5246051497943225,-0.1687901040647929,0.023578514872087897,114.77599288968648,20.308615066536298,-22.975901609672963
00:01.188,0.5208096885429196,0.16319109863763745,0.06952511611140237,94.58142982538651,28.540078321075217,-22.88175485936617
00:01.210,0.3858801490560794,0.32357963516258287,0.129096329925546,29.231147203720614,26.59921789010832,-56.17790940510173
00:01.232,0.353252449154276,0.3536743622441791,0.028071896824515715,-56.89683935871327,0.5595162896499667,-55.695086261330815
00:01.254,0.41485018466298973,0.22941356279501116,0.016104643695543784,-117.93885861456708,-17.495785155202316,-5.953464390660977
00:01.276,0.5806043954087436,0.12943599574280315,-0.0016851537802875457,-136.4483662037663,-14.406274963827629,53.08945255644722
00:01.298,0.6794433396911617,-0.0056388816277770995,-0.05239532101546916,-102.85575460802775,8.120697031387033,93.39307627911201
00:01.320,0.5109767068564629,-0.039937713536617826,-0.00850348733955716,-39.35228709163439,37.95913761000698,119.12712928729997
00:01.342,0.44746561405135526,0.1500863577832178,-0.013105792117026744,12.172678327007686,48.27659907217735,143.54568409440438
00:01.364,0.35845117640430535,0.4165963792587856,-0.02006983001474299,34.405034499839225,59.164183687279284,162.42198199400127
00:01.386,0.28241243254845116,0.7009445124158264,-0.01707647475086577,28.8288283111344,71.12740217504428,165.26875884139602
00:01.408,0.20821768058033505,0.823332865230324,0.08038626340061816,4.068416089082182,61.2635817265242,158.86787658300403
00:01.430,0.21360618258688566,0.8877603632155593,0.06433757748919428,-25.1701720528861,55.36849189202648,168.91086273480033
00:01.452,0.21893379969046145,0.8700610645998497,-0.04686014357958093,-39.62148199810163,69.23250045430083,197.0223928215191
00:01.474,0.07768831701975536,0.8309354628808878,0.0030428812911179083,-41.69242437360272,93.2745453405909,211.52330941802987
00:01.496,-0.038911546481106986,0.7834043959257172,-0.020708666538704793,-33.486426831351075,87.60938255424757,211.64228352617667
00:01.518,-0.10931637297208961,0.7984789911491225,-0.32923819770590446,-2.2826692864022826,74.41433596763476,208.66806689420739
00:01.540,-0.10174651947576781,1.0213423892889801,-0.16998182611173665,14.878618289247125,88.84348304410234,205.8923898908754
00:01.562,-0.2749641102736953,1.0386209599038725,-0.012892717639883594,1.3221037452729,97.1169077297823,210.72984687253313
00:01.584,-0.3831172373765156,0.993651807810325,-0.1661107366470023,7.342400772177881,69.44185049564233,223.54378409535488
00:01.606,-0.3631885428864727,1.0878930588618287,-0.15886396016983567,7.162043359044983,66.83254664801557,221.72926087310526
00:01.628,-0.4353539479321499,1.1652845369581788,-0.3326809994157029,-12.104661371079459,68.60959605106825,219.76754256346857
00:01.650,-0.49721969097534596,1.215726268124738,-0.40491989467789263,-31.734693076463653,81.15641938676997,227.41282630010778
00:01.672,-0.501114257710185,1.1387097322173145,-0.2225653135701274,-64.45706953324722,98.82435118272876,229.78413748098234
00:01.694,-0.7313413594039013,0.9754764701440832,-0.2252547121371244,-79.4335121453679,97.0296177835393,237.440299080591
00:01.716,-0.9538786736422669,1.082681577522258,-0.42313985553164063,-67.77369179115662,76.26506156045316,243.05280409791288
00:01.738,-1.0216785040432332,1.124036214405017,-0.40879234835068423,-70.30293550868308,69.7348476684,204.35697907185332
00:01.760,-0.9615072647626645,1.0886004091338555,-0.3836405671533686,-81.7166672643726,65.77662365446749,180.73786004633325
00:01.782,-0.9225723539672028,0.9240836141190879,-0.39762958311921226,-78.88229985503551,66.56751899013358,192.09167518464466
00:01.804,-1.0146113588050394,0.8503641292394828,-0.40106829369042685,-71.52291780417717,78.52092323574838,185.4106846343895
00:01.826,-1.1356351173911317,0.8008359230260788,-0.38320330908966116,-74.63890263377307,75.42365578227711,171.67079783886342
00:01.848,-1.201939975210582,0.7856587316332467,-0.3572084868741766,-83.80825537543365,61.51052738683316,162.358105327637
00:01.870,-1.165693888543353,0.7396053450401167,-0.3798897329688197,-100.25115745161304,52.12474363103712,150.96605205952795
00:01.892,-1.1249135720504209,0.6724561433064244,-0.31305234425520506,-120.03030869700186,49.723908278607084,145.16557491846123
00:01.914,-1.1363021331066696,0.38574633674291214,-0.37586107649728884,-102.54566576321456,39.864175362581456,152.847345080487
00:01.936,-1.216757811546707,-0.005607554264069007,-0.4489263492150554,-25.63719323460094,11.904080922393979,163.6427248043497
00:01.958,-1.2770480022781097,-0.04212031423273145,-0.5394362725895955,18.51126595227835,10.950653830977268,137.5209954596049
00:01.980,-1.1936862217364388,0.3977404694613995,-0.38197392249429807,-9.752787196093621,49.90912975695139,79.13081928056022
00:02.002,-1.0830005475211646,0.6936241839099938,-0.24716318213224725,-37.72183103126891,80.84515141577737,67.68190868833553
00:02.024,-1.1646786960336686,0.5118875180421957,-0.17389609470787046,-44.01199567728658,77.20361914872363,111.34885312718188
00:02.046,-1.3509210907200624,0.1826737077413666,-0.1844277483243299,-50.696182391079184,48.22877928424293,117.72627718967351
00:02.068,-1.2921909882506748,0.06829452411802195,-0.24543374553950226,-61.04034457361598,26.457455891460686,72.30624354248793
00:02.090,-1.184689150107535,0.013202317070677308,-0.34575582877797756,-47.57060743571083,8.763580246782945,48.45878851801336
00:02.112,-1.0912701134802496,0.09299892755833472,-0.40172309876881923,-16.896953291351256,4.945601560016447,49.23728315426178
00:02.133,-1.0425474983197007,0.11769396796128583,-0.38924771037669487,7.446324559656562,20.010212824706006,45.6404861263808
00:02.155,-1.049842980504874,0.2080981562663803,-0.40351759189090225,16.83764851786094,28.673421628569418,36.23167951159977
00:02.177,-1.0535637155358146,0.3133211846356133,-0.3197123133695362,8.433935236518014,19.525102360771985,27.699453364114834
00:02.199,-0.988259147915294,0.27582097128699656,-0.2702453527196444,5.889549472001524,9.648722134302728,21.734844589451725
00:02.221,-0.9128855654690753,0.2575626344281664,-0.24253609195626263,8.960800615326006,8.324042764312885,12.264350748680693
00:02.243,-0.8177009984228089,0.24269406706220342,-0.25709226415155506,14.913923689842346,8.64956610339837,3.263697550592732
00:02.265,-0.7322087646090738,0.24249022314463878,-0.3133754518939837,23.681956161878954,8.294737492978898,-0.5255337704099432
00:02.287,-0.7642450880382605,0.25327811546042267,-0.2722545890148285,31.010798293285504,6.2680506816483526,-2.1435366839550074
00:02.309,-0.7787330464624622,0.24531570569356828,-0.23994688587342086,39.06610859461751,2.5321398716869044,-6.734526914285948
00:02.331,-0.8440627705789326,0.3234335209796142,-0.21705875605577513,39.04470651732178,-4.897522005723405,-13.76323809974056
