timestamp,accelX,accelY,accelZ,gyroX,gyroY,gyroZ
00:00.000,-1.0590901572708535,0.4383605441138765,-0.1,10.817130219863824,-0.6544783926324289,0.43656137917998084
00:00.022,-0.8961403153435898,0.5168510296203613,-0.1,11.132061109443386,-0.6522036686783426,-1.3157295800730753
00:00.044,-0.9266775087740616,0.44756419864578106,-0.08,6.157813157053382,0.18700409343603358,-6.607538225969012
00:00.066,-0.884923417334543,0.5329919008048779,-0.13,-0.3678327960107343,-1.3843437974408688,-21.668053379596138
00:00.088,-0.9074233285171508,0.6083422560012376,-0.12,-16.595400837936666,-4.899244866771414,-41.822711276210526
00:00.109,-0.9491315238796402,0.7060957074015721,-0.12,-22.316973079988593,-9.460409028502783,-61.658742052267606
00:00.131,-0.9645356014767532,0.5899621748090261,-0.14,-5.253585661697971,-11.055412030514107,-78.18121333404166
00:00.153,-0.8993012387726187,0.6541219771377009,-0.17,-8.37356942092686,-12.691102829418664,-85.21911472620451
00:00.175,-0.913822580731687,0.6158895862265589,-0.16,-5.385512736835218,-12.202343877018128,-93.9111243934161
00:00.197,-0.917927100066544,0.6431902325101708,-0.16,7.664466233781091,-11.732161973393687,-99.67448606626405
00:00.219,-0.8124607862297523,0.7369491251245102,-0.2,3.8775841050367204,-15.92710311764587,-104.45879973855274
00:00.241,-0.8665357456365052,0.8187051823350832,-0.18,-9.508037427347881,-13.425236910200868,-111.33721055106948
00:00.263,-0.7777413053011166,0.6972917204176354,-0.13,-18.261596731385087,-9.307688696697234,-113.89457227336436
00:00.286,-0.9111071240750147,0.7547165501407438,-0.12,-18.46729199494583,-11.06289670531127,-118.84355440220116
00:00.308,-0.8527007296493134,0.6061793263299657,-0.13,-6.717140806505381,-16.72681883027599,-124.34591860401285
00:00.330,-0.8544368689306949,0.7191104628749108,-0.14,8.023631646539181,-19.00402830164609,-128.32171669381447
00:00.352,-0.6973522046792043,0.7634847158368809,-0.13,6.1169965706385065,-19.85640620092598,-131.8533201584642
00:00.374,-0.7363480954267526,0.97634887759549,-0.14,7.9436002045510525,-18.512194895793773,-132.12337610878905
00:00.396,-0.7890192806879691,0.9643755813573534,-0.15,15.456607211437214,-18.154535541818024,-142.7303542515966
00:00.418,-0.5775710981188007,0.9978843878838658,-0.14,12.849116297568418,-17.132466364060388,-140.31546739792992
00:00.440,-0.6187226368606351,0.9697372014006077,-0.15,-4.2963910746205975,-16.068922653684353,-134.31072240739115
00:00.462,-0.4595844398222169,0.9121470301027697,-0.14,0.991057535378569,-14.46220947306927,-139.3949387978794
00:00.484,-0.46080923888005776,0.8297679757153033,-0.15,5.059567614326933,-16.29718573379634,-137.56549391688662
00:00.506,-0.3818827114894477,0.821006636817526,-0.15,10.12026123944526,-14.682379137036378,-139.82524643537897
00:00.528,-0.3969720081629168,1.079744330969814,-0.15,-6.243108724644263,-9.970364707013056,-139.38689137420386
00:00.550,-0.36793845997176877,1.0307869588765306,-0.16,-8.689225530649828,-5.5616367778569975,-138.53272836119532
00:00.572,-0.23736987951579389,0.8916120764118969,-0.14,-8.057186889774744,-3.367106192222674,-136.13358553256674
00:00.594,-0.2721120864879664,1.0269872013152286,-0.15,1.6622996736921039,-8.073645334689564,-139.61814935987928
00:00.616,-0.15405317302281407,1.1071627909677617,-0.14,-0.007062603604000319,-6.29660370364993,-140.3991250904809
00:00.638,-0.12170271775949866,1.0351122948435756,-0.15,-0.17987312713601591,-5.313295404870683,-139.4636287860858
00:00.660,-0.09713879841124021,0.9236992163436155,-0.15,-1.8577987667474734,-5.717807887469944,-137.69281811166474
00:00.682,-0.04047670133301244,0.955116959314172,-0.15,1.0373780894442763,-4.1461842119230745,-137.5490265161307
00:00.704,-0.019244284329372405,0.9593520550408535,-0.14,9.809965131573223,-4.2885519082955055,-138.88515486953472
00:00.726,0.1563870301993447,1.0902611153260104,-0.15,3.0394692964471135,-5.306008776385548,-138.9749822446146
00:00.748,0.13250979917706937,0.9890014986558675,-0.11,-0.71005439903263,-3.9002688624701385,-138.53227564451862
00:00.770,0.14698679737117684,0.7144315690980012,-0.11,23.482984880394323,-2.056003064721297,-133.25544024255726
00:00.792,0.2369480238985744,0.8345664795255855,-0.11,28.393502375610016,-3.4763522608212516,-123.00853616105096
00:00.814,0.40224040656543436,1.0476432422174948,-0.14,3.8881135797336825,0.42886488101240955,-126.8533539627885
00:00.836,0.34567037131205947,0.9681133962010239,-0.12,-20.445914860006994,6.527365572249995,-128.76977441230272
00:00.858,0.3058773194389663,0.7887031796379819,-0.08,-21.00402100205587,0.8770131802461631,-124.21419945355844
00:00.880,0.3550876492743629,0.6214897285132568,-0.13,-27.042777267472765,-0.1115501507088538,-115.02203256842508
00:00.902,0.49103503014633215,0.6739479286743897,-0.16,-23.182224039914217,5.251237142510816,-114.13589573000849
00:00.924,0.5480112924476762,0.7287397956376962,-0.18,-16.814471136030527,6.26007694556744,-104.90151561983718
00:00.946,0.4434695720197656,0.608159444429123,-0.18,-12.52449060012837,4.8264112596811195,-93.84276325529956
00:00.968,0.5994861366373758,0.6567472861779753,-0.15,-14.766215655279314,2.8497935902070046,-88.11259912042964
00:00.990,0.6253356151173028,0.6380546999483304,-0.16,-28.143164433631632,4.319607660970387,-83.24951601818319
00:01.012,0.5030413080895223,0.5785013292859984,-0.17,-33.139657745635866,3.190464500212462,-73.76206893322708
00:01.034,0.5666204412541103,0.44961248950605687,-0.16,-28.28653158203979,0.3697368335870346,-63.53675055673303
00:01.056,0.6358360799786232,0.46952163499521465,-0.16,-24.491164964877637,0.23016299704022616,-51.15092647353237
00:01.078,0.6699456363771661,0.5092460663825917,-0.17,-32.22231045853037,0.5797826785045238,-44.34929934373871
00:01.100,0.7219692020535541,0.5645028609096765,-0.2,-44.161772345723726,-0.9074890627344793,-35.651123732194115
00:01.122,0.6595564186683094,0.5069835661069197,-0.16,-48.483681920017354,-2.8641857817306735,-22.16484854929396
00:01.144,0.6670581763302343,0.32437284175134956,-0.14,-37.459123439303816,-2.9292934740958088,-4.021097118011112
00:01.166,0.740229296847897,0.23983394669325372,-0.12,-24.692026059271406,-1.5546044608096519,16.931092492824977
00:01.188,0.7284344576247548,0.12958486909748937,-0.17,-12.024666273756141,0.3156135267412962,36.420696113470385
00:01.210,0.5938072617621074,0.360473930259653,-0.18,3.4968646964798933,3.7319458526428226,57.242063721236285
00:01.232,0.5365393383868033,0.4819701811051618,-0.17,6.4246367822646935,4.39840745497958,72.55009286105944
00:01.254,0.5926851502945676,0.6889207619225914,-0.16,2.1495241182746105,4.479606683140805,83.80530072667263
00:01.276,0.562714978312299,0.6847297690253545,-0.18,-0.8248477815504075,6.417308359745656,93.82167406542933
00:01.298,0.5269570168274855,0.5413361027265932,-0.18,-0.8306824174910679,7.501786768267564,105.94088259315023
00:01.320,0.4281574817978196,0.4829762967469891,-0.2,33.52611435043668,9.99998713725963,117.04795914572924
00:01.342,0.4761386781878346,0.709613510768137,-0.11,71.62014151562192,7.987709921465803,128.61704041772742
00:01.364,0.4340251019227246,0.7979426126074636,-0.1,45.54610773215943,5.184569922361022,127.41182113841626
00:01.386,0.4399623928471486,0.9705946822454579,-0.18,10.312450411973561,7.792489286654468,121.56449746525426
00:01.408,0.44399232348286444,0.8730887532469764,-0.2,-2.921147016275488,11.305481530440764,126.79987931259102
00:01.430,0.3691398875127576,0.9298276301142938,-0.16,-8.931646749125843,12.638418244014408,124.88891547683089
00:01.452,0.30850743093047595,0.9297896513903314,-0.12,-12.710722099050601,14.122472141488162,121.06422118510427
00:01.474,0.26482520088863326,0.9620132180996679,-0.15,-4.985495544017729,14.363734008558502,118.76323473901304
00:01.496,0.2400160809193203,0.8369110470680625,-0.17,-6.04504818196596,10.883262822906875,124.61552588100646
00:01.518,0.11393599172730624,0.8548177037382523,-0.18,3.6250330918540983,13.590230616774612,129.63008651515779
00:01.540,0.009771045369389567,1.0022332385888273,-0.15,20.771474915682713,19.47614254502412,124.35965097910368
00:01.562,-0.06452778034296783,1.1284909632967277,-0.16,-5.1192569365897675,14.65888443234664,131.02785345388185
00:01.584,-0.040533769856793765,1.1650885659356571,-0.23,-26.268967836702853,15.755375161798959,122.2471186635614
00:01.606,-0.15134061834713114,1.1745252483581812,-0.26,15.375318152097986,21.102338368359668,109.20207300286967
00:01.628,-0.24310152582821148,1.2972699651294861,-0.18,10.66838827594856,15.613179282263504,103.69430378101177
00:01.650,-0.02847654236821863,1.1313866545681117,-0.12,-25.01505597182492,10.668254741145153,97.41987355899677
00:01.672,-0.07714874019221532,0.8251812428738713,-0.17,-41.751199254659056,11.697232288820175,103.90350773156771
00:01.694,-0.08747683626328495,0.5394903337205703,-0.24,-31.45413654603136,17.47053792817339,118.39460519099852
00:01.716,-0.37850523219428905,0.5639483216987877,-0.28,11.745159123767166,22.515894402520146,128.51403373009992
00:01.738,-0.3575102580727571,0.91473043214896,-0.12,16.54757924923198,10.51693792505801,134.62710340276195
00:01.760,-0.3490866296126297,1.1183713590875834,-0.17,-7.645587110507528,-0.8674001772942195,121.79243679749429
00:01.782,-0.47842258695855705,1.0097088962970349,-0.24,-25.596920541738125,7.728182036548442,129.40584724812254
00:01.804,-0.6193744025227798,0.9728828242170476,-0.2,-15.8184146218368,7.336344478632281,128.99195652256088
00:01.826,-0.5007460390437204,0.9691916442820324,-0.11,-0.2662254772795,8.356634248822171,126.88926961412332
00:01.848,-0.6301513044918827,1.0734671005639884,-0.12,-14.429397525912727,8.022632214601943,124.8031399705327
00:01.870,-0.51868259712561,0.8747531255091181,-0.19,-16.41281323526613,5.654573603939992,120.84162697916116
00:01.892,-0.6793722820657204,0.7515020040678808,-0.2,-14.76320404429368,10.144830592773596,122.91887893089422
00:01.914,-0.751603661584781,0.8337912869718089,-0.16,-0.049742637196321375,10.254385846447732,121.45253505187803
00:01.936,-0.5951647944909482,0.7611186023770058,-0.16,-3.1443929253277205,3.6879743120850916,118.31456724332782
00:01.958,-0.7669029483525065,0.8754759987677309,-0.18,-9.809507332280441,3.9332296147952497,114.90652024815516
00:01.980,-0.7777060750194233,0.8614405517228103,-0.21,-12.991812324460874,9.093783951759765,122.32386719981305
00:02.002,-0.8208429307365693,0.7006051902524081,-0.22,-6.556421640915833,13.721405828983213,122.86683868574059
00:02.024,-0.7725528650097251,0.6815429098730634,-0.2,1.3816073952042667,8.749356233241357,124.36746241121371
00:02.046,-0.840876975613433,0.5869986061316186,-0.22,-0.08608904961361953,1.741561556144757,124.76846939381623
00:02.068,-0.9019978560816401,0.7163020734193086,-0.24,-6.684889836896265,4.563980761756674,120.17521821415832
00:02.090,-0.8698972599255089,0.5763678042615192,-0.21,-11.354262431807577,10.69213545535247,112.82148413516454
00:02.112,-0.9099349922066192,0.5214019808199809,-0.2,-9.722978687121776,14.047695043255974,102.47610891748707
00:02.133,-1.0801625164987065,0.46592879379685437,-0.1,-2.7365585835279473,12.598187083058905,92.71325550767398
00:02.155,-1.0800465998938258,0.5642316443662754,-0.08,-0.20756615507702517,-1.091744592140332,80.50622615484578
00:02.177,-0.9697014717143867,0.4824044654903402,-0.15,-12.274298525697212,-9.864404189857915,65.21353184027868
00:02.199,-0.9195286503604508,0.589092632915065,-0.19,-22.457386269675062,3.858274001649402,58.173356770143286
00:02.221,-1.0043003136904085,0.37703587223505614,-0.2,-3.743543199906301,13.715632172423367,50.747726020009694
00:02.243,-1.0782057891064756,0.19198513383039234,-0.14,32.55101660545462,5.777459796336271,45.03356806733408
00:02.265,-1.1191162460311534,0.3434693575270858,-0.12,62.82520010786975,-11.411709533266551,38.42154356044753
00:02.287,-1.0098529611698455,0.43771730890445687,-0.18,63.20686150938005,-18.79366626431843,30.79085975335507
