timestamp,accelX,accelY,accelZ,gyroX,gyroY,gyroZ
00:00.000,-0.97,0.41,-0.09,2.4494048046015564,-11.364720195195849,-16.996357468409993
00:00.022,-0.9611764705882353,0.5711764705882353,-0.12,8.367971687931382,-24.81744495132431,-35.15695628698292
00:00.044,-0.9517647058823528,0.7523529411764707,-0.13176470588235295,-1.0855881334795918,-26.000354624886,-60.6945641987407
00:00.066,-0.9952941176470588,0.8629411764705882,-0.22823529411764704,-10.242909087802603,-21.521520626588988,-104.6883994781879
00:00.088,-1.0188235294117647,0.7847058823529413,-0.2247058823529412,-5.006871585876714,-10.702290778001302,-134.1337860921742
00:00.109,-1.0411764705882354,0.7788235294117647,-0.19058823529411767,-1.202344751954514,-13.607516936268816,-157.55043862947596
00:00.131,-0.9588235294117647,0.8152941176470588,-0.18,-12.942595367113697,-16.747297184093995,-168.9990294399627
00:00.153,-0.888235294117647,0.7658823529411763,-0.19,-21.432913086106563,-13.142464447462851,-165.23482310154353
00:00.175,-0.8423529411764706,0.7,-0.1758823529411765,-15.018751620101282,-16.515446888075903,-167.64292320361818
00:00.197,-0.7905882352941177,0.7388235294117645,-0.15,-8.597137603980572,-18.8799143384295,-168.87046691418797
00:00.219,-0.7611764705882353,0.7882352941176471,-0.15941176470588236,-3.926872864983681,-21.144341427819025,-164.00988979758847
00:00.241,-0.6729411764705883,0.8029411764705883,-0.13588235294117645,-1.7973066695022566,-19.221268272800163,-159.52912684343
00:00.263,-0.6394117647058823,0.7747058823529412,-0.09,17.697943386594947,-18.928582622141747,-157.79451164795182
00:00.286,-0.5723529411764707,0.9347058823529409,-0.14764705882352935,13.400306153369128,-26.195027759735,-152.83212867337843
00:00.308,-0.4358823529411766,0.9994117647058821,-0.1452941176470587,-5.6173596494982725,-10.028370238263566,-138.98131117570014
00:00.330,-0.45941176470588235,0.9035294117647059,-0.11411764705882352,-16.85145790265178,-6.342423695445345,-139.06614939067836
00:00.352,-0.3382352941176471,0.8729411764705882,-0.1411764705882353,-15.194507593656615,-6.1423429735171995,-137.38113192087977
00:00.374,-0.2800000000000001,0.88,-0.1300000000000001,-5.025502961165293,0.7009584751333953,-127.57252906608782
00:00.396,-0.2335294117647062,0.9658823529411764,-0.1558823529411764,-6.830262180782917,-2.869400893868223,-121.79439402441595
00:00.418,-0.14058823529411762,0.968235294117647,-0.17,-7.981681173615414,-0.19129339292454647,-121.08827903513551
00:00.440,-0.09352941176470586,0.9423529411764705,-0.16117647058823528,-15.659670930027453,-0.4778955081189249,-119.67148084499888
00:00.462,-0.02,0.9164705882352943,-0.17823529411764708,-9.939217670599247,1.2883576216049057,-116.335381191393
00:00.484,0.003529411764705937,0.9235294117647059,-0.17941176470588238,-6.92714533228342,-1.0423124095040792,-111.51265497070685
00:00.506,0.07588235294117637,0.9576470588235294,-0.1976470588235294,-6.376277669585253,-2.930912196893429,-111.56877871292322
00:00.528,0.10411764705882338,0.9035294117647058,-0.18176470588235288,4.6826856558559244,-4.325393714926436,-105.28291958468925
00:00.550,0.18411764705882347,0.9635294117647059,-0.20294117647058826,-1.1191246089989741,-4.8526334551425165,-107.65708440077266
00:00.572,0.21,0.9311764705882354,-0.19,-3.3735210189137113,-2.3617636568140306,-105.02253152487144
00:00.594,0.26647058823529424,0.8723529411764706,-0.19,0.5924777341759412,-6.218725141010049,-102.35991677786203
00:00.616,0.3076470588235294,0.9370588235294119,-0.19764705882352937,-2.5692666522912546,-3.892110800210409,-101.72885097875465
00:00.638,0.32647058823529385,0.9335294117647062,-0.18470588235294122,-6.725926479167043,-4.5822541011855344,-100.56330442528439
00:00.660,0.3994117647058823,0.8852941176470589,-0.18823529411764706,-10.316813543113856,-5.808424471380356,-100.6207333708081
00:00.682,0.44,0.8641176470588238,-0.21,-21.039170021675172,-2.193452508975821,-100.51892751283422
00:00.704,0.4564705882352941,0.8035294117647058,-0.20588235294117646,-22.173820776747966,-3.596721356012437,-97.16520761457899
00:00.726,0.5011764705882354,0.7588235294117646,-0.1929411764705882,-19.69957413842834,-4.630922384897803,-92.30202009136474
00:00.748,0.5399999999999998,0.7300000000000001,-0.17000000000000015,-19.45798730552012,-2.8038339005336703,-87.48908289548385
00:00.770,0.5629411764705883,0.7270588235294118,-0.1929411764705882,-21.261504433451908,-2.913337538886225,-84.24108446512457
00:00.792,0.5935294117647055,0.6905882352941181,-0.19411764705882362,-16.91666771616174,-3.8826475228219106,-78.39507885147013
00:00.814,0.6452941176470587,0.7052941176470586,-0.20764705882352935,-15.292011791000032,-3.6210554978685665,-76.35113047214817
00:00.836,0.6447058823529411,0.7088235294117646,-0.20882352941176477,-36.52370602399024,-1.8825162519253251,-74.50165738562254
00:00.858,0.6435294117647058,0.5394117647058827,-0.2405882352941177,-25.236818874185868,-7.1805996927119065,-64.34717565438085
00:00.880,0.723529411764706,0.5058823529411766,-0.20705882352941174,-13.492220938125964,-9.296318137425116,-54.159411238801454
00:00.902,0.7182352941176471,0.64,-0.22058823529411764,-21.280756854583384,-3.6629642977318837,-60.074592627745886
00:00.924,0.711176470588235,0.6152941176470592,-0.22294117647058836,-30.051166248747453,-7.568594065640149,-50.60403742955953
00:00.946,0.7694117647058824,0.5441176470588236,-0.1841176470588236,-37.183256709204954,-6.661471333114563,-46.13893691508933
00:00.968,0.7329411764705881,0.454705882352941,-0.19823529411764712,-48.24159898880318,-3.775171729624025,-34.80716180061107
00:00.990,0.7223529411764705,0.3064705882352943,-0.2,-36.22746715690231,-6.0450064060926945,-15.373989757364585
00:01.012,0.7405882352941177,0.2511764705882353,-0.1947058823529412,-7.927650185278643,-3.303359756969145,8.022432128673147
00:01.034,0.6923529411764712,0.3688235294117638,-0.19823529411764698,15.447273251737823,4.392988553415629,29.111907168956304
00:01.056,0.6658823529411763,0.46823529411764675,-0.1976470588235295,25.180924748320205,2.719340352422121,51.30101599568837
00:01.078,0.7264705882352941,0.5711764705882353,-0.18823529411764706,2.9965461922420285,1.085573106137186,64.96127381049253
00:01.100,0.7288235294117648,0.5876470588235296,-0.2070588235294117,-24.20153545398526,6.547236056067724,66.67892136297506
00:01.122,0.73,0.57,-0.2,-14.369137668373785,4.493028914379754,71.36916944796441
00:01.144,0.735294117647059,0.5394117647058826,-0.2058823529411764,-14.392737410405957,6.666878920193687,75.89365671291934
00:01.166,0.6588235294117641,0.49,-0.2435294117647062,-8.282888407446933,13.004570976944853,87.94590405305904
00:01.188,0.5858823529411762,0.5341176470588238,-0.21588235294117625,10.00442748410922,17.014296796126498,99.81803333678324
00:01.210,0.5376470588235294,0.6694117647058825,-0.20235294117647065,7.183016219579515,16.385664798176567,108.95510908993973
00:01.232,0.4611764705882351,0.7882352941176474,-0.2741176470588237,6.188100779170839,17.526665671874916,113.19571463554442
00:01.254,0.44764705882352934,0.8047058823529413,-0.25941176470588256,-5.20871148483595,20.47042088808128,117.98515817189289
00:01.276,0.3864705882352947,0.7535294117647053,-0.2323529411764702,-11.465127306731608,25.420390910648287,122.320390957281
00:01.298,0.3123529411764713,0.8417647058823519,-0.26647058823529424,-6.516634030092389,28.673054538750556,124.46745039788416
00:01.320,0.2735294117647059,0.8870588235294118,-0.26,-8.183521072574711,28.04104279887614,129.06894465797322
00:01.342,0.2417647058823531,0.814117647058824,-0.2505882352941177,-5.127975525252326,33.08496964694317,131.91689827462739
00:01.364,0.135294117647059,1.00705882352941,-0.28058823529411797,11.36203369680165,33.13634172419505,126.37565763324096
00:01.386,0.1305882352941177,1.0752941176470583,-0.25,-11.928427505573646,29.541648213337254,124.31147860265497
00:01.408,0.11529411764705885,0.818823529411765,-0.29117647058823526,-26.9179899710561,35.618424193519886,126.13484762303345
00:01.430,-0.05176470588235251,0.8405882352941165,-0.28882352941176476,11.463264169202617,42.586100144990745,123.86248866492397
00:01.452,-0.11941176470588202,1.1441176470588248,-0.29647058823529443,18.580449529429114,33.21272389168783,119.35040083138888
00:01.474,-0.0758823529411764,1.1723529411764702,-0.3482352941176472,-25.240545149243633,30.01008044406769,113.33863439770005
00:01.496,-0.1599999999999987,0.8100000000000049,-0.35000000000000014,-6.060165335523246,30.50893035211827,118.97450227886985
00:01.518,-0.224705882352941,0.914117647058823,-0.27882352941176464,6.7551156337857226,27.786886206156645,112.82438429460119
00:01.540,-0.2541176470588236,1.031764705882353,-0.3,9.641736711825459,18.703491809972594,114.16482809125733
00:01.562,-0.2588235294117646,0.9429411764705894,-0.3176470588235292,-7.390445531125265,17.327936846716575,114.20137378386343
00:01.584,-0.3252941176470584,0.9035294117647056,-0.28764705882353037,-12.494821314345385,20.495430978322297,116.09326597787816
00:01.606,-0.36411764705882343,0.8729411764705884,-0.2582352941176469,-17.32655797250986,22.051464160344626,116.48352176677805
00:01.628,-0.4564705882352935,0.8276470588235293,-0.2976470588235293,-5.210574622364942,25.02293326033157,121.99278492713424
00:01.650,-0.5970588235294122,1.0411764705882351,-0.3088235294117649,-7.262510087477232,15.183828569837935,112.22725378148517
00:01.672,-0.55,0.989411764705882,-0.29,-17.846373343060428,11.114619292785665,105.52634000151146
00:01.694,-0.6017647058823529,0.8405882352941176,-0.3094117647058823,-15.387031804971652,12.155579805519954,106.00730742027271
00:01.716,-0.6582352941176469,0.8770588235294116,-0.32,5.8788199493808095,7.491535949762444,101.75626024820919
00:01.738,-0.6576470588235294,0.8982352941176468,-0.25,6.206111108616414,5.214941789444818,90.53346960989525
00:01.760,-0.65,0.8123529411764704,-0.25529411764705884,-3.01952488843124,3.70960473628947,85.68268151810096
00:01.782,-0.6994117647058815,0.7452941176470592,-0.27647058823529386,-0.980010340177866,4.543725043246678,83.6661424082336
00:01.804,-0.7311764705882352,0.754705882352941,-0.27,12.580525640672871,2.398264869598227,76.14947656116146
00:01.826,-0.7441176470588234,0.8023529411764704,-0.2535294117647062,4.609402246387694,1.0544794804321345,65.198168210778
00:01.848,-0.75,0.77764705882353,-0.23705882352941166,-7.965533981698568,0.963902396856561,62.12702482856559
00:01.870,-0.72,0.68,-0.27,-29.318953199907423,3.9299639097643886,62.704577292071335
00:01.892,-0.744705882352941,0.5935294117647062,-0.23,-31.065955156130617,11.902099161185294,67.32760740673174
00:01.914,-0.7976470588235293,0.5064705882352944,-0.2358823529411764,-17.948224861304606,13.468947517365882,68.26474338141453
00:01.936,-0.845294117647059,0.5164705882352942,-0.26647058823529424,-0.5117417745921531,11.69999059410247,65.5368684690372
00:01.958,-0.8635294117647059,0.5447058823529412,-0.27647058823529413,7.297288654682633,12.010926851152977,65.35675041262188
00:01.980,-0.8988235294117646,0.4917647058823531,-0.2647058823529412,15.09514025878432,9.124627247662461,63.22143780178492
00:02.002,-0.9276470588235294,0.46,-0.2547058823529413,25.265386982961537,3.4689671112677987,59.44222162533116
00:02.024,-0.9194117647058824,0.4694117647058823,-0.24,29.50775113616475,1.8318201230584086,55.31712657242761
00:02.046,-0.91,0.46,-0.22941176470588273,31.51497130058468,7.010936648103869,57.334970885602345
00:02.068,-0.9229411764705879,0.46,-0.20352941176470604,29.342552941939644,10.052028431734813,58.43329946874376
00:02.090,-0.93,0.4788235294117646,-0.1905882352941177,22.03656964545567,8.316192979331154,54.654735893943666
00:02.112,-0.91,0.470588235294118,-0.1976470588235295,15.403800042731303,9.15504492498258,50.434360999603044
00:02.133,-0.925882352941176,0.4241176470588239,-0.19,21.93658126474033,11.389054337051979,48.45045197241954
00:02.155,-0.94,0.41,-0.1735294117647059,26.372090675101543,10.87668546130354,44.97339036161904
00:02.177,-0.9576470588235294,0.4511764705882353,-0.18117647058823524,29.32143738327922,6.056497528635883,34.698829926100444
00:02.199,-0.94,0.45588235294117657,-0.19,28.03400935084037,2.987015912839488,27.620712390300458
00:02.221,-0.9470588235294117,0.4429411764705882,-0.1617647058823528,22.038432782984476,2.90455020988262,22.47299054608225
00:02.243,-0.95,0.43,-0.14,15.467146718712414,-1.1950767444897556,15.70942700735545
