timestamp,accelX,accelY,accelZ,gyroX,gyroY,gyroZ
00:00.000,-0.9081522300689145,0.050746115141507474,-0.11388177698275302,-12.604254302003937,7.529625079343577,25.88386040047565
00:00.022,-0.9495501765385489,0.12597839782773348,-0.11006364429179624,-19.08326249711038,11.027919261383769,28.24146807002373
00:00.044,-1.0000409432171684,0.20680833749463418,-0.09708202143243713,-28.011582629768377,12.70049509118322,25.89170352891206
00:00.066,-1.038359443328352,0.17819730721914862,-0.14612422367036507,-30.879161267541043,9.951107055818493,20.448473507175287
00:00.088,-1.037102795212955,0.120953010764622,-0.16147406811945458,-24.0041444725305,3.3110958979025398,12.178467693143888
00:00.109,-1.0893118157420039,0.007712294370886549,-0.16232306256650197,-3.3981711644320467,-3.319051625950241,-0.4901755343855999
00:00.131,-1.0778360936489932,0.03333846078094928,-0.2064961078241977,22.369915869506624,-9.141475435212367,-15.206125123216218
00:00.153,-1.0750611892980224,0.09548578430394655,-0.20850069717698752,36.78579661797972,-14.981181125541205,-26.915243365484827
00:00.175,-1.0376529080363166,0.2292875415843744,-0.2935452786729805,38.46194117613553,-18.95055900511631,-31.790257182749837
00:00.197,-1.000209356473566,0.18102123032946504,-0.29971183370879134,35.84804214066625,-20.80050745836641,-32.079113769298985
00:00.219,-0.9627127093225648,0.18280333525538897,-0.387635025447749,35.933955568637856,-24.95188833662214,-35.25088295595848
00:00.241,-1.0464364220349303,0.14834984732696632,-0.3658173005435286,47.477342603209266,-33.67851915624938,-47.67121525015293
00:00.263,-1.0968647689024758,0.11277101943735349,-0.4548887196905896,74.15098897243374,-42.877023371766256,-67.76884530606878
00:00.286,-1.1658656622233854,0.3243805163273253,-0.4284962568359665,97.83079893357576,-51.66008695074295,-90.74154511703885
00:00.308,-1.1997952042193845,0.49375312277104166,-0.4089103133774541,104.28346003811443,-65.0256528025038,-114.04362099753176
00:00.330,-1.157600291753383,0.49194904675515355,-0.4070866720038839,97.57210259970215,-73.88120835291252,-127.66671003871399
00:00.352,-1.0698838298205364,0.5407779032941341,-0.3106859945003634,75.88763566506448,-75.2100564245046,-131.43471743807078
00:00.374,-1.1591500818620946,0.5168935104910543,-0.4328600895711791,89.31994193485595,-82.99819227361453,-147.1971382610967
00:00.396,-1.152947996916763,0.6235245666975692,-0.4122798506808489,104.54615021804877,-81.55045098958918,-180.03457174096033
00:00.418,-1.1529860939003198,0.8434149481434233,-0.3591157829469004,95.04935715103787,-87.832839346465,-201.95575500393895
00:00.440,-1.0527833427371271,1.0114886617300594,-0.3715395528419469,72.9764907434344,-92.09644175363053,-210.83075997732982
00:00.462,-0.9335584025136433,0.9808144231501779,-0.46537098082225414,51.491494130413805,-83.1215933330725,-209.52071373010114
00:00.484,-0.9090682202984425,1.0022132127713699,-0.44181073848276015,43.411019096689785,-72.18747442962729,-205.96058538823596
00:00.506,-0.9281810561836169,0.9363842293258523,-0.430749182787922,47.96091806321137,-72.84180573269929,-211.68865664176278
00:00.528,-0.908667821908529,0.890033371341119,-0.37222675741693045,64.16910744473294,-77.02225336015059,-225.4939873348452
00:00.550,-0.8142172414998335,0.9278063594473187,-0.31846254158467974,86.99583509256861,-75.66062640352894,-239.85863809141418
00:00.572,-0.7466767819704171,1.0160935738105497,-0.28393163056031123,103.78162153689635,-72.45309774966046,-252.50644499917865
00:00.594,-0.6513466704777643,1.1558751321863212,-0.19082685132557137,111.1224423190933,-66.9849808474812,-260.86449386230345
00:00.616,-0.559717024113648,1.1878217309623118,-0.19084752191334584,111.94065728773109,-53.460750122290165,-261.33193845160326
00:00.638,-0.47163477343376564,1.2462495427088494,-0.06509570037129445,88.4439167462821,-38.97882891310122,-259.5084540795328
00:00.660,-0.3742521278668903,1.297364946378244,-0.09214075480143132,47.93684635784954,-32.25833555128744,-255.6976159291167
00:00.682,-0.25318383882799084,1.0946767785488873,-0.09250704128846184,32.71309301221272,-22.97495362316352,-235.66618868892644
00:00.704,-0.10908026923047708,0.9694131228189893,-0.1452699931482158,20.914588067115115,-21.006504174485716,-220.2354311240872
00:00.726,0.06240070189582403,1.008137976568522,-0.1640408980093632,10.16594702268814,-8.311401928442285,-214.56667342408835
00:00.748,0.05590800204080026,1.099445167195972,-0.07914860338340261,4.552717873385791,8.093023233613495,-207.58691043497953
00:00.770,0.03973928384788293,1.044317206412879,-0.08613158099600525,4.770699161064477,10.95993144487485,-190.8067561726063
00:00.792,0.08151495568180138,1.049517068683358,-0.06752744262447029,3.1498024526937765,1.6673573761763416,-180.1084563804085
00:00.814,0.1558777392170064,1.0317496306122964,-0.08269197212322756,-7.152731281780512,-0.7716180683257479,-180.66206747975556
00:00.836,0.17778875318987408,1.0582791507179763,-0.15392525285883898,-19.719863310186323,8.865092840345838,-178.57379415604137
00:00.858,0.1530961874286986,1.041366761377862,-0.18243955646093535,-24.871443396825423,14.637866730482541,-166.0182667287283
00:00.880,0.15199797363693032,0.8868867282023577,-0.21513625285573104,-18.86406274863791,9.444703032297676,-155.03372442235195
00:00.902,0.1473766660243098,0.7764368901030234,-0.16708037708909235,-7.256336200453242,-0.0729236987611733,-157.42098559702143
00:00.924,0.2427944622589775,0.7671593350636903,-0.15267262735164683,0.9588927204757449,-8.921077425579426,-165.31065612937047
00:00.946,0.30667334266376356,0.7271420005540947,-0.1938546294740449,5.276723209379379,-15.028656665927521,-162.48124199225344
00:00.968,0.43770101459797284,0.6523031796082224,-0.11137340934070733,11.12569290404102,-16.07913837863759,-147.33686763117927
00:00.990,0.5371735541483346,0.6109005149460581,-0.14172227544841048,14.761828199360798,-13.297470422537351,-132.11567737744193
00:01.012,0.6299367164880925,0.5437167659491727,-0.05280406523156126,11.33037602132596,-9.824495348855319,-124.12922741686347
00:01.034,0.6111597650414938,0.5200130434942544,-0.07240258258008073,2.6324688814756128,6.068850355993045,-109.27632648096385
00:01.056,0.4905557870271704,0.3870449085046806,-0.0777410841928888,4.093215130472306,3.4628344903154242,-76.35757927228914
00:01.078,0.449720195426417,0.2627247389530909,-0.07043776888490284,8.414165003653734,-15.768622776249403,-36.293595808237214
00:01.100,0.49341808095092476,0.1732271779462992,-0.06899908891140355,6.203402270665267,-25.43872126795229,-10.759786162780955
00:01.122,0.5343869410857254,-0.1092826508100196,-0.08692143842909332,29.463806512176667,-25.413566163329325,5.487624046081652
00:01.144,0.4693592037632484,-0.28195974288141223,-0.05967927424010954,63.409576247078455,-35.54446466020787,92.63761280918732
00:01.166,0.5392296017986848,-0.07671996204288585,0.003857345162756753,53.05168917942285,-29.436988673148115,98.62624776427135
00:01.188,0.42185092071970487,-0.17765272884818778,0.03363807769872451,82.22422899532124,0.4723037878567451,11.244477670393282
00:01.210,0.521985878036921,-0.17325004867037364,0.06880418480163283,114.70134272292324,18.64976035716437,-23.440617146626796
00:01.232,0.5578424611919769,0.17473403584248812,0.06769673121743748,96.06655562302541,25.71797182018919,-22.00244168056478
00:01.254,0.3462225085008749,0.3648930611853987,0.1550526788694915,36.12454661037427,26.139024041648323,-55.29132156290316
00:01.276,0.2905547206850233,0.3763290188968437,0.08159771454049265,-48.695630093647786,3.252816879727549,-61.29191928667179
00:01.298,0.41572753618890324,0.3032530672673922,0.05423589754817326,-112.07889038692198,-15.625075244253651,-15.805594093071422
00:01.320,0.5430247906364887,0.11475272394121219,0.010137529246170805,-139.4876991922168,-15.642601122345322,45.35425379451018
00:01.342,0.6407996411884211,-0.03662005470834352,-0.010048155970122433,-117.01579785140923,-0.16923829932050888,89.6594080551503
00:01.364,0.5804269049840425,-0.04505036164783602,0.009429299354473907,-54.57868549980746,32.309550501586195,115.3085088552873
00:01.386,0.4485213783840041,0.08969429182559518,-0.05131137093609418,3.1714544028550664,42.16098504932366,139.82587253627653
00:01.408,0.402849488846787,0.3579688634623224,-0.01674826127824386,32.29184278465596,49.58995210182991,162.6418830067543
00:01.430,0.2836928874002173,0.6628654737538165,0.057532021075203145,34.03376609166079,65.06502033174615,170.14317723130182
00:01.452,0.2059631019503305,0.8266637655504925,0.06996783291729301,14.986578547739796,59.93988583431833,163.21392702551896
00:01.474,0.18578802003992084,0.8960579494425173,0.09310252492354558,-13.817910484919619,51.442275087735574,165.92046132007945
00:01.496,0.19851683514176915,0.8927469973249709,0.012412712854713384,-33.72914504175684,56.57312238984867,188.8355699179929
00:01.518,0.10410272034826222,0.9126755827467514,-0.02162236943597669,-41.09736193981452,76.11042125027423,209.52757544395809
00:01.540,0.04596712196003934,0.8111304475827606,0.01764904036278029,-38.84568071374427,83.74729639283393,216.4058667331493
00:01.562,-0.03640803648584348,0.8470802514327807,-0.1515715682833195,-20.13691283220947,74.95473832321827,215.10205690057867
00:01.584,-0.0853983264877623,0.9509808713464578,-0.2896999495774525,4.510579486791386,73.51889670214305,212.19273611218853
00:01.606,-0.14967243389463689,1.0495823554782076,-0.13349228915813866,10.175747942108977,84.34943085700246,212.20933631874536
00:01.628,-0.28174354619280406,1.0844083503372248,-0.12865528400909826,3.030578440371089,81.68234194066399,219.45484715736134
00:01.650,-0.38404817119552914,1.0328976592377277,-0.19499821831326242,7.467316347499766,62.4857410650372,228.513299311424
00:01.672,-0.3280416808834416,1.1334553644111875,-0.17282618363094288,3.636228314771824,61.638507114460964,226.19059813659572
00:01.694,-0.3636431742688543,1.199428816395019,-0.3337988193350579,-16.067496416316224,64.55496237193661,225.38659057297613
00:01.716,-0.447108358077446,1.2477544762648212,-0.46708124657339356,-35.43529570468997,76.85328371908467,233.61759201108617
00:01.738,-0.4653648091152918,1.1636217768334227,-0.272992965474537,-68.80209622002528,93.01157313112574,235.05783323561013
00:01.760,-0.7150287990465666,1.0364953470022864,-0.2177758947191809,-80.42635119455362,88.7612952013297,243.5335267925731
00:01.782,-0.8925685624169776,1.123751509450222,-0.43423281062758473,-66.79324784898,68.89193115538569,248.72489724365855
00:01.804,-0.9589648429432825,1.1992755218452615,-0.4508797460991356,-70.39527168547284,64.13102876094632,207.9427753936273
00:01.826,-0.9298418863244321,1.1506917921869293,-0.38116084880938317,-81.36654625829163,60.585216585397944,185.04403332521707
00:01.848,-0.9078090015933685,0.9613034233371371,-0.40109295789618665,-79.31769025588929,61.07845032595069,195.2018388469461
00:01.870,-0.9387708055414303,0.9041239352984012,-0.39682257338971455,-72.11184360152102,70.85091203836232,191.2672830490762
00:01.892,-1.069060381495893,0.8521962677648431,-0.4075212365234435,-73.57964678245814,70.8195087785178,177.00654954270613
00:01.914,-1.1749904695112139,0.8165597245243214,-0.3892796464735559,-82.18690595511958,58.78252097563059,167.34567595384777
00:01.936,-1.109604751805584,0.8003199694082319,-0.363837669925071,-96.1096522701765,48.96984267929088,157.07201890676944
00:01.958,-1.0843467747514044,0.7217562263057749,-0.3295269562960744,-115.4093562029921,45.62988950306717,148.47863817967067
00:01.980,-1.0747334583695747,0.5315123969302933,-0.3283384062393637,-115.30265963923745,41.188046910965696,152.28731936375166
00:02.002,-1.1837210779162708,0.12037073494414931,-0.4280377451659979,-57.807134828888806,21.44703985536789,164.86575862452997
00:02.024,-1.1996247979323658,-0.1941324672674912,-0.6067386729609815,24.33401915729306,-1.3068349181748098,161.93600347010954
00:02.046,-1.1731829420956594,0.18028022207272662,-0.5373879040705307,5.947703107592785,30.984295008233257,102.65068460888881
00:02.068,-1.0537921943182893,0.7291008384141897,-0.23427591540884316,-33.13457802794265,68.09689684886226,49.6398807735093
00:02.090,-1.0761662116722446,0.7182906949712703,-0.1693966613442406,-43.63885402475297,82.59610165738314,94.56386596574539
00:02.112,-1.241434273486995,0.3245626876717382,-0.2285039746010143,-43.72261468374613,55.5938058094167,135.17459018564432
00:02.133,-1.3094771401179748,0.137231409876673,-0.21996827592484777,-59.44606404713009,34.551301613667825,95.91941924655842
00:02.155,-1.2017837960808124,0.05372708604008939,-0.29802560912950493,-58.87294414811552,16.0832459031214,57.90289594049979
00:02.177,-1.0880543041476682,0.047415124897934896,-0.3617724611425206,-34.81085526650282,3.78006460903322,50.21428362417174
00:02.199,-0.9996120949210237,0.08210178212984011,-0.4245988400633443,-6.86314975104478,9.77234241782131,49.76959404407158
00:02.221,-0.9818322228900588,0.12229299315097747,-0.39514536769851416,12.42643598659072,22.571382153120354,43.559060389538146
00:02.243,-1.0173829644294314,0.2751530473566533,-0.39155536468496893,14.081067347583073,24.074508150497465,34.24637320656962
00:02.265,-0.9563426758000209,0.2966301203222478,-0.3167172658196806,7.535796822350017,15.206405423048093,26.98671366061843
00:02.287,-0.9268069560103065,0.3288907043786007,-0.3068772518428096,6.3922382116523915,8.522524726063756,20.136864590869465
00:02.309,-0.8221696505850725,0.2795749987802414,-0.27459701766845374,9.970553521345524,7.718376189007673,10.726564035096114
00:02.331,-0.7544632886821363,0.2726499209690294,-0.2996493817957916,16.229443964952544,7.954741282524069,2.686490822770337
00:02.353,-0.7376445243643115,0.2322579139830398,-0.31362209914063005,24.432309531437653,7.400626318356285,-0.6793446246323468
00:02.375,-0.7085270898964825,0.22275884840814253,-0.2753305296440973,31.590497643162774,5.48408622780435,-2.5188566691084935
00:02.397,-0.733367971167136,0.2464621354975195,-0.26206541037470693,39.039884578193444,2.058411002276976,-7.135693115419908
00:02.419,-0.7581915015827404,0.3016990081295915,-0.21743533923095693,39.00595009429407,-4.518733913907695,-14.036326818730808
