timestamp,accelX,accelY,accelZ,gyroX,gyroY,gyroZ
00:00.000,-0.9543898348950428,0.029985961664499662,-0.08310550317477042,-13.155639812192867,7.709601173522889,26.304177711565185
00:00.022,-0.9610366669270407,0.08742516789262546,-0.09671095743322668,-20.261709250902847,11.490550718301597,28.821241412866414
00:00.044,-0.9872596774608731,0.1554640765503355,-0.11666367690490513,-30.31174050799359,13.224722207673791,25.899789497180524
00:00.066,-1.0418875707070834,0.18978816197877488,-0.1432905823353522,-32.528088624929396,9.594897511056388,19.69750291928437
00:00.088,-1.0636469695165727,0.06241061237119795,-0.15575029412657274,-22.780403348518476,1.6341927531524685,10.28201037430958
00:00.109,-1.075550675863829,0.01829463643462257,-0.19435943191534116,3.8841872032949305,-5.296094342652206,-4.5777375082463925
00:00.131,-1.0549319006430387,0.05322591104776423,-0.1996256413470009,32.76975057309513,-11.393733115502592,-20.834954941414807
00:00.153,-1.0561838663594658,0.19059458304147148,-0.2688441836012714,41.01879546435898,-17.908998671055006,-31.082047014120512
00:00.175,-1.0131298904179948,0.26686622453155284,-0.26167777566080985,38.88631478270066,-20.503933919491228,-32.80144500250911
00:00.197,-0.9722352923259608,0.22386588285974932,-0.31054048655811894,35.90204118176762,-22.15888363795774,-32.25378124430316
00:00.219,-0.9644401987535065,0.14813301953237393,-0.32165262297258174,40.126754839612296,-30.516822748574658,-41.1563659794489
00:00.241,-1.0705697306430886,0.13809205925490683,-0.4113640906664895,66.9651982358907,-40.963285522215855,-60.793667060738095
00:00.263,-1.153489890517165,0.22975603537276668,-0.4487645127195252,96.88276206693662,-49.49448259004353,-84.68920955360205
00:00.286,-1.2279081209346687,0.4747638875946481,-0.3577751147951292,108.27908987389407,-63.7354400173784,-110.85724033010793
00:00.308,-1.1440166875342623,0.5176147987807059,-0.36927831091239505,103.62705527970341,-74.45552058290656,-127.3587011647034
00:00.330,-1.0825951661924378,0.5220037460924694,-0.3201450932460722,82.10534281647892,-77.04248028140634,-132.9703687686228
00:00.352,-1.1042226744630415,0.4925207729806802,-0.4431769111271579,91.92881279865081,-84.62127366001286,-148.28205843681644
00:00.374,-1.1993751567944797,0.6122726817914617,-0.39553218151110947,108.67431164078353,-83.79467651302875,-182.12771212751895
00:00.396,-1.1457985657951608,0.8289187318945058,-0.3594886614839387,98.46822285233108,-90.53701252334402,-205.88470552912014
00:00.418,-1.0165437292424209,1.01314565085016,-0.3278518223178235,73.64875289912877,-94.97127341437461,-214.65784309642305
00:00.440,-0.8677349211839243,1.0206801402777712,-0.3577737438474148,50.3999344899175,-83.1446351766161,-212.10047732177253
00:00.462,-0.911187272776473,0.956088049259991,-0.3737311857610975,44.919865955634954,-72.13565043418129,-208.50220089830788
00:00.484,-0.9533381842053764,0.8999461899950812,-0.3711100550163926,52.48713634682387,-77.02015734259604,-218.3840517872116
00:00.506,-0.880438370327665,0.8578015807748417,-0.34287010302768883,74.75333141401661,-79.27272773413783,-233.95993588741715
00:00.528,-0.8322965250569064,0.9603152701003712,-0.2711796038169902,99.53398576313009,-76.27197257257717,-248.8553781496375
00:00.550,-0.6943676065383645,1.063995749573125,-0.19401204411713707,111.5791954287833,-73.36091543962861,-261.58294016673256
00:00.572,-0.6002900516615429,1.1745238854827664,-0.18195986999227817,119.41890470495855,-62.33352536369731,-265.57355891925977
00:00.594,-0.5299386682915287,1.2083654133204285,-0.11424710780727147,105.2070343720242,-45.67826901349351,-264.38638226248486
00:00.616,-0.4610532334851489,1.2968743630465167,-0.054948747670236435,64.40376599460751,-35.96587369356205,-262.29646691792914
00:00.638,-0.2726290215527984,1.1704135154394335,-0.11276610992615721,39.21445460273149,-26.57404925010044,-245.90006815435208
00:00.660,-0.1145413040330346,0.9633058986085457,-0.13939521974465638,25.087148973864338,-22.193008330788505,-227.90856501536638
00:00.682,0.028752091400446093,0.9714349380160684,-0.13929090674938682,12.981762133649157,-11.394352461604031,-219.05405677147252
00:00.704,0.061272882666069936,1.04966759155317,-0.12061324359757403,5.5550270315129495,5.649138708374067,-211.91004074951198
00:00.726,0.05597332784966918,1.0292337295014526,-0.12771463080443796,4.845696463987817,11.27920373171448,-195.6252429644838
00:00.748,0.07683574486329432,0.9815189519777249,-0.05340031495411259,3.3194120090841746,2.2222899247051493,-183.23181452258186
00:00.770,0.16003757317658027,1.0204989429452955,-0.09214998101290131,-7.71609683255161,-0.7033325963120606,-183.54520715419054
00:00.792,0.18691987964273413,1.0694120928591206,-0.14235149047065243,-21.44447601354691,10.26626313180828,-180.83196915784336
00:00.814,0.17419955366536613,0.976472760312143,-0.14101931076663146,-25.87894956913425,14.88499713563376,-166.17558477722974
00:00.836,0.14659880418432233,0.8389338247333091,-0.17194064101449102,-17.167619434682337,7.827022174897416,-156.70473439791158
00:00.858,0.1913743378727085,0.7273072709028664,-0.18496466465716171,-4.763704470200646,-2.522142246339957,-162.68521744002177
00:00.880,0.2517723444972496,0.7385628362973081,-0.13800028408117535,2.132648216709492,-11.629764293710073,-168.49703025517127
00:00.902,0.38204771140212546,0.6980712236895756,-0.13903592840792015,7.809327143252769,-16.23095604534852,-159.53357502249645
00:00.924,0.49347152526081245,0.5620012420013609,-0.14767445427615844,13.721904711517437,-15.277558624844035,-142.52725869385398
00:00.946,0.5907446527261293,0.6080391959958714,-0.08529854388740869,13.908429277668796,-12.474444539787955,-130.50253383382508
00:00.968,0.6308905713238263,0.5310748982427677,-0.1264639364486333,6.893191042702983,-1.2113638323580567,-118.00975257369927
00:00.990,0.5549633233132629,0.4821230465123615,-0.05210167148282283,3.62236736460006,4.640583020170221,-91.05747012602303
00:01.012,0.4695095565508116,0.3054299782089227,-0.018897323709594783,7.116307870206794,-9.00682643998129,-51.09304753914596
00:01.034,0.47779926090494945,0.16992063132907995,-0.034047551223716846,7.398828531301468,-23.709656094055102,-17.71933631238433
00:01.056,0.5309924296282617,0.011901049087691995,-0.09872891401001212,23.597051495606937,-26.55450235142846,2.136805697400266
00:01.078,0.502409769898273,-0.24245569411401235,-0.05525216712438811,59.68288872609334,-33.94666944348615,74.19538687561992
00:01.100,0.5289903157980848,-0.10655972528840926,-0.01902581828911261,59.193115178947636,-32.18805187659861,105.6407730594674
00:01.122,0.4500647021067694,-0.2248882133742125,0.04476975267146398,81.4060971138233,-1.7764721377247474,18.145765954606855
00:01.144,0.507893787929892,-0.21357533285391397,0.01707837920452681,119.53608123715325,19.14602136314236,-23.85101026521167
00:01.166,0.5092253358705134,0.1748444574561208,0.12089339836486186,97.7318516822413,27.360180746922374,-24.49369790781259
00:01.188,0.3591770269723687,0.347211896796037,0.06341234592185915,26.706600402875612,24.2621495561039,-59.40916425977003
00:01.210,0.3576924527412997,0.35227309093134096,0.049158658747443566,-63.78665045475968,-0.971761684918202,-55.49735824316939
00:01.232,0.4326544269803078,0.2786771218606065,0.0394892073850086,-125.91088349021075,-16.799837082858563,-0.8857655584454955
00:01.254,0.545818276387458,0.0739663404231999,0.02134521846897775,-140.30559050333315,-12.282662187608585,59.869623838058004
00:01.276,0.5628349713678404,-0.006193025460733058,-0.0036176184255497304,-99.29806749461669,11.811658516582924,100.08921421536463
00:01.298,0.4959613572184195,0.02176398518016557,-0.03216231268462286,-32.603474803866874,37.28948024251621,127.12494543506483
00:01.320,0.41623032019857625,0.23636476058011147,-0.009976302383903991,17.511922482535933,46.87017530589925,152.68019214663275
00:01.342,0.3285938693528793,0.5281241772854253,0.01802151876203198,35.75406080624427,58.89537299850981,169.72257994099573
00:01.364,0.21438673944489978,0.7425760668478043,0.05823907714505819,25.357249564720235,65.37985004484814,169.64730431084817
00:01.386,0.2060982378857908,0.8805241598722818,0.05984769906863577,-2.7725912014107785,56.04187444854301,166.31719377841478
00:01.408,0.21857725091463456,0.9518632480817064,0.021118476415862057,-30.116400129033455,54.879476123007684,182.52070897600356
00:01.430,0.1049801879793709,0.905521630791357,-0.008308596683752905,-42.0262123886617,71.90054347850705,208.72281865382945
00:01.452,0.03129522845044719,0.8540364063786652,0.016610696264390087,-41.65460880247107,86.85263460920824,219.67709857503925
00:01.474,-0.02119801713679449,0.7830444823421752,-0.09972672716682089,-25.289522420967206,78.76072896207523,218.81463011311897
00:01.496,-0.08701957147044594,0.9608490754414168,-0.23824768967490526,3.3035604930289053,74.54862813346126,215.7275479515086
00:01.518,-0.14444940951850965,1.0652014524789262,-0.13347239244326528,10.858826259153538,86.44198438451953,215.40226097080506
00:01.540,-0.29089307672959047,1.0636686418922787,-0.09442176061621209,3.419677734139422,82.96688737966808,223.31545759366495
00:01.562,-0.3408687643778363,1.0015645010966108,-0.18506821633962378,7.719902040975083,64.09625918297208,231.80941323870982
00:01.584,-0.3437136084783248,1.1661563824388692,-0.20515682997364892,0.5965810273121359,63.61080563659631,229.3721111101877
00:01.606,-0.39772584106890874,1.2308255387231397,-0.32648612933163484,-20.899391447593022,68.9687710857551,230.74987634727097
00:01.628,-0.41077529255282264,1.2729840702988333,-0.37981564219874286,-46.27751163032823,83.40828216736172,237.6783113449145
00:01.650,-0.580384796077577,1.107393473077052,-0.2043282987081276,-76.08988966104567,94.57041711989213,241.3847411983065
00:01.672,-0.8105328146323489,1.0327215844561313,-0.23472798939857958,-80.07361140695924,84.32473043374306,249.57033024377876
00:01.694,-1.0028859013620113,1.1266390066514116,-0.418113368839329,-69.02367619036188,66.71845253118273,239.34651359462168
00:01.716,-0.9265510416342004,1.187939363766983,-0.4320305030471437,-78.56359111353296,64.34446703471181,195.3718295823516
00:01.738,-0.9295760312571402,1.0759328040605818,-0.3777205695429788,-86.39890660768324,61.6197396525371,188.85684821083817
00:01.760,-0.9331956507070989,0.900297456121643,-0.3619773149733757,-77.7662762569554,67.2592879245807,201.41777541431588
00:01.782,-1.035854853302968,0.8546543969434358,-0.3745246611404079,-74.04572043573609,76.47813039250335,183.46397455984135
00:01.804,-1.1610494925776345,0.8025551314369012,-0.35685617476468295,-82.98679239357872,64.00053194978443,172.16120764171905
00:01.826,-1.1289354663964482,0.8053253764640945,-0.3739079380439935,-95.71966831438455,51.482494583404474,162.38112616996767
00:01.848,-1.0791879068461059,0.756309301251245,-0.32391588714884134,-117.31865912859803,46.875845435542445,150.8122926899093
00:01.870,-1.0910168901602926,0.5610195329141024,-0.3119392482858013,-124.6711912325189,43.902088533082335,153.2757159079587
00:01.892,-1.1749478114947935,0.14285601113117702,-0.39647244075689886,-64.27611465147855,23.3178161731472,167.1068098852515
00:01.914,-1.2395751994509925,-0.19080428643924577,-0.5441963866158964,24.997482813089295,-0.6614269736608814,163.35154449659782
00:01.936,-1.1522516296771816,0.2612379680912849,-0.45404577263199625,3.045277328522621,34.83051707730544,99.97564687926749
00:01.958,-1.0277370203947762,0.7430736126160266,-0.19721071487758715,-35.971110295095265,71.9541646395178,56.58219180300191
00:01.980,-1.105014302115781,0.6898221117002236,-0.20193308276988742,-45.92813478285961,81.23111988292143,104.15872186872225
00:02.002,-1.2608567358211982,0.26882674117210503,-0.19119778578876287,-47.99186520422695,50.89728230336446,135.31394422368336
00:02.024,-1.2836529359772704,0.05039829697891574,-0.18086004123518293,-64.71771250804115,29.401172994837236,83.67057642860959
00:02.046,-1.1822846857556313,0.03729182577689202,-0.27529080739277084,-56.54391816026292,10.605844137676844,49.936468033505804
00:02.068,-1.0166588151812115,0.06448047309019818,-0.3926531498201914,-23.204277772711418,1.9231105218455942,51.390449766577575
00:02.090,-1.0017087540989733,0.10062907763023844,-0.39792686051950005,5.022889327089437,16.629076708123396,49.113645693950154
00:02.112,-0.9920114783924806,0.22000590071927914,-0.3814449141182781,19.076234584755998,28.3317106231521,39.1235761801959
00:02.133,-1.0523043244968948,0.28084834061233416,-0.3088080049436214,9.280234798086111,19.935733920070742,29.437748350288455
00:02.155,-0.9128007151223937,0.3475806106692177,-0.28604828929409415,5.784310745674483,9.265617857568264,23.732319196431803
00:02.177,-0.8735362607701369,0.2714494475521152,-0.25912156526007857,8.805046157126439,7.78498926691289,13.634069827685945
00:02.199,-0.7684455743352048,0.23872718944871596,-0.2555222306690875,14.832913330280176,8.245833675128097,3.68799873211491
00:02.221,-0.7146226575110554,0.2516622131581959,-0.302907810427131,24.15270511602362,7.918363715683906,-0.4696094649693908
00:02.243,-0.7275739017681389,0.26402415927688405,-0.2611962427764416,31.922488424473944,6.046190957411537,-2.0100145970403585
00:02.265,-0.7186416299718892,0.24196831085001694,-0.22610001460421952,40.73129827808989,2.5269736774750604,-6.8592933121107205
00:02.287,-0.7653859137395171,0.30765714699506097,-0.20787159379068634,40.626140385783295,-4.623661603184989,-14.237054789406184
