timestamp,accelX,accelY,accelZ,gyroX,gyroY,gyroZ
00:00.000,-0.8540729837585666,0.3282443506755686,-0.11,23.357830963348704,-6.09149067799701,2.5682208757230294
00:00.022,-0.868295785995584,0.44083668466473014,-0.1,11.571061462736083,-5.158568819166621,-1.366031706546056
00:00.044,-0.7984249107405296,0.4651543056211642,-0.12,-3.4417008483926534,-3.9154384768183665,-5.820484612749823
00:00.066,-0.8945997360380655,0.5653551342558993,-0.14,-16.757456795426716,-7.958996977456071,-14.55095211189286
00:00.088,-1.017221539300409,0.4699481524139425,-0.15,-30.769211121266732,-12.882567046416995,-26.177809434962143
00:00.109,-0.9691508617694911,0.7381510105258086,-0.19,-46.96851648380225,-16.304401276049678,-43.651171413769724
00:00.131,-0.8853514686643995,0.7129082950389473,-0.17,-60.830887217400566,-11.978984092380744,-58.808883989916886
00:00.153,-0.9767576574204497,0.6785122580160537,-0.18,-54.929690930631914,-8.317427973345232,-76.0267622382459
00:00.175,-1.0459864250565964,0.5209332625072446,-0.2,-28.42987770961561,-11.396797550409179,-90.49259324090363
00:00.197,-1.0502059641773607,0.5539524061182208,-0.2,-9.393033535068549,-19.963898477886627,-112.38923906433014
00:00.219,-0.9410838290193824,0.6681604237933209,-0.2,-13.588783453373843,-23.74499400735414,-126.3887255801028
00:00.241,-1.0420803303566695,0.8371923720645307,-0.23,-24.852531029993997,-19.66277157781482,-133.65477323817237
00:00.263,-1.024435553260746,0.6304642392969839,-0.19,-23.614449350838598,-18.676670399887133,-131.71809413523314
00:00.286,-0.985900467981146,0.6333487058961451,-0.18,-6.174843430932145,-25.953337672278092,-132.49007254067942
00:00.308,-0.8194997544626044,0.6480992597363775,-0.23,0.6615821940615106,-30.423740418980223,-134.0526685618076
00:00.330,-0.7996685573579148,0.7157367618678513,-0.2,8.586692081569117,-26.03842680769836,-135.0572179242925
00:00.352,-0.8533585717868447,0.709597922906799,-0.22,15.20486681900488,-28.515216288020017,-129.1892773805149
00:00.374,-0.7788581965707526,0.7348692925171721,-0.21,17.09164484497176,-33.231188323477426,-132.52460076346497
00:00.396,-0.6681111444985774,0.7088581854914451,-0.2,21.936086039869604,-32.30444180182232,-130.21717899883654
00:00.418,-0.7151214823113848,0.851584497464739,-0.21,25.233595572048486,-29.022221196785768,-127.58310247633153
00:00.440,-0.5447319711120304,0.8432956258716175,-0.17,37.51759967271072,-25.21213147008045,-125.80698558137125
00:00.462,-0.5762305583137611,0.9183594722328753,-0.17,36.4557956251612,-26.262625592954915,-124.97334631769719
00:00.484,-0.38316131447327423,0.757967410304168,-0.17,52.908427424811165,-20.471373156913323,-131.0118944818695
00:00.506,-0.39472881033112894,0.9779466347811098,-0.17,43.82167908249266,-16.394885949262093,-118.95049351611458
00:00.528,-0.3779437633008358,1.1449303584475545,-0.17,17.243956824455978,-13.468786757552866,-113.26921724456291
00:00.550,-0.32313989471840654,1.020425158814879,-0.16,0.01602413022807064,-9.884713338008014,-117.55116768051161
00:00.572,-0.40653024858520137,1.051820974330417,-0.16,-9.100763558213314,-9.546809075338976,-121.40701787048651
00:00.594,-0.35767315054800053,0.9182845910220688,-0.15,2.940059055178661,-10.047510876940876,-122.88081688326339
00:00.616,-0.18057524820651194,0.9724662036612732,-0.14,-2.803741461577933,-8.419639085726164,-122.86733219934513
00:00.638,-0.10315106339063604,1.0143086629101608,-0.16,-8.351747923751539,-5.121395772835678,-117.23301219985353
00:00.660,-0.10283620454561308,0.9808510553467475,-0.14,-11.988956183037061,-3.778768774158543,-120.21874724030937
00:00.682,-0.10007311010606793,1.055487198446966,-0.15,-6.412727045970613,-8.530918259116758,-125.6448770712912
00:00.704,-0.053953576615881876,1.0552854637445468,-0.16,-4.362550911572686,-7.132201981048287,-116.86174931454516
00:00.726,-0.005973400370613257,1.0274864176263057,-0.16,-14.977999262934127,-6.627675858595204,-117.57256435941203
00:00.748,0.11167911042671541,0.9900678847000981,-0.15,-16.399171763693122,-5.836366175512182,-122.41131887823396
00:00.770,0.11555614734912714,0.9907024506952958,-0.16,-10.426383136771785,-4.18037357705759,-118.54408567151314
00:00.792,0.22751872862684494,0.8776783556729724,-0.14,0.4570042385019436,-5.573047119387176,-116.49022163197351
00:00.814,0.13021399990874544,0.9496189016361227,-0.15,-6.1788877550392325,-3.568161531974797,-113.07997309407718
00:00.836,0.19325940229057761,0.9626455622690276,-0.17,-1.7773844428271472,-1.769008110634079,-113.52108347033406
00:00.858,0.16818099786557894,0.8827780164472678,-0.16,-3.800573185251232,-5.29079659623728,-110.8155856796753
00:00.880,0.32687494366222936,0.8831066607644558,-0.15,-3.3040381286414187,-5.5916457314736245,-110.0177363316721
00:00.902,0.36838604197421204,0.8234548474799823,-0.15,-3.949863088038698,-3.13873999738285,-107.60661866115721
00:00.924,0.31526389144878963,0.8076006598232928,-0.15,-11.067288995470255,-1.026918452329036,-105.29852958317447
00:00.946,0.374001478202867,0.8862331036769594,-0.17,-5.442638170740513,-1.8527373810695171,-101.82228415837804
00:00.968,0.44381618019754554,0.7499623609396965,-0.15,-9.295927337713055,-0.7848858722959111,-94.88971894199364
00:00.990,0.5805307801465571,0.712963716782026,-0.15,-4.5802386225149485,2.7063401309577895,-95.87768063915196
00:01.012,0.578111806398488,0.7173304527740412,-0.17,-9.327330763918303,4.871100878529648,-92.00427780165545
00:01.034,0.5492330331286219,0.6559453096919937,-0.17,-18.342872011051018,5.109163667258212,-86.65451325383063
00:01.056,0.5754565296265083,0.6654361036764763,-0.16,-21.939394356941825,3.734033687407533,-77.61952078736587
00:01.078,0.559956128463367,0.4362419095109872,-0.16,-12.651932592556939,2.5231188637673627,-66.6235972245751
00:01.100,0.599530074651088,0.46161201534093427,-0.14,4.900574902628736,3.8413593668560675,-57.5567252061816
00:01.122,0.6369091322042514,0.6278253853118884,-0.12,15.82318818884749,4.764207601552612,-48.4742249063287
00:01.144,0.7666829612065778,0.5834562029071356,-0.13,10.096032063756468,7.748004691923088,-41.3074183689725
00:01.166,0.7371338590870834,0.662389499251439,-0.17,-4.725446689334549,10.560273459303946,-34.70551504718001
00:01.188,0.6069180759968756,0.6654125851121891,-0.19,-17.791531851652493,7.416423635728875,-31.593405385642992
00:01.210,0.5906152348544991,0.6304813253091051,-0.2,-28.800290594948944,2.8951593145973344,-26.33279357967928
00:01.232,0.6655540220179424,0.639467680343085,-0.23,-30.421842125464288,-0.3738679113246566,-19.750399491952077
00:01.254,0.7738283405588574,0.5494157196074249,-0.24,-26.932796280983517,-2.5165386553810114,-13.054402990991601
00:01.276,0.6440126966121754,0.637038289363589,-0.23,-24.292160921727216,-3.620578768731912,-6.1358269165075265
00:01.298,0.7529348920512579,0.5278796566886655,-0.2,-24.84466586908065,-4.885827867432994,0.8741705193644916
00:01.320,0.751528049031646,0.4739843130301342,-0.15,-30.7422542132333,-4.964677680650712,10.539937098387352
00:01.342,0.7570399085199674,0.3863113439795553,-0.16,-28.512832364766012,1.111131373501689,26.984801107169883
00:01.364,0.7090067985098277,0.33135606195959305,-0.14,-22.877767595860828,6.952667936628957,47.95733152897841
00:01.386,0.6679808941057236,0.405570032060241,-0.16,-19.90870376671109,9.788767108581299,62.649497359392896
00:01.408,0.6253076582255946,0.3266545421744028,-0.18,-15.811735094580646,12.01776975668623,75.82337545138286
00:01.430,0.5548584891944731,0.49455511821434417,-0.23,-1.284124391962569,11.680027268736998,92.93639387148998
00:01.452,0.4782065678212994,0.6635543605070412,-0.24,-0.35483490652038385,11.313381351689946,99.59071623681193
00:01.474,0.5270497537490538,0.9219733902423317,-0.21,-10.785347938783326,11.46980086286603,100.62965728544928
00:01.496,0.5213693580778673,0.8547558713625657,-0.23,-14.448057773751023,11.653512306671681,99.55174964172912
00:01.518,0.5466302615153659,0.7616749958053532,-0.25,-11.683581216287028,11.66170429927531,98.74074246103143
00:01.540,0.4483804531971753,0.8657490011163136,-0.28,-9.447558882636345,13.052653350806173,101.4647604398743
00:01.562,0.4814211420870613,0.7980381022469452,-0.26,-6.84329220619565,13.470390435026708,104.32107118913815
00:01.584,0.3359742119640798,0.8652013700162601,-0.27,-16.53809478842176,18.79494233089566,105.17617426655276
00:01.606,0.27531503058128964,0.9253981423535237,-0.32,5.593586103596165,18.53237107752032,99.96150448430771
00:01.628,0.20733240836056613,1.072083567952356,-0.31,8.606776116725653,12.5994693494455,104.82122854891975
00:01.650,0.24970671521043228,1.0250844113679938,-0.3,-12.084448487358282,11.482647293235482,108.11915724217118
00:01.672,0.311400903385232,0.7947718182545689,-0.24,-42.29727639868289,21.536539960666435,108.2296458402303
00:01.694,0.09353617179887236,0.7612215761868784,-0.29,-22.099869269652515,25.08675952517389,101.72563889128398
00:01.716,0.009793192676127285,0.9182228625178256,-0.32,-0.24957043650726196,21.693763093672512,110.05959784616441
00:01.738,0.1598906060402871,0.9876209558751764,-0.31,-25.49271397621736,17.650852193227596,111.51973837875525
00:01.760,0.1641564374392387,1.0610152275706501,-0.29,-53.75716337462338,24.995922374814185,103.31303877549476
00:01.782,0.040596938934991694,0.9208984544979216,-0.32,-51.34302166383114,24.619530428907144,88.29974699799332
00:01.804,-0.15480900639603187,0.8407780695137316,-0.32,1.341591376256397,20.395749254313813,109.57425654587927
00:01.826,-0.07551151303326094,0.865560804733058,-0.32,-15.431774540312757,20.89343857375359,108.30758550726648
00:01.848,-0.12277346117006721,0.9542450911274475,-0.34,-7.297968962573875,24.224263372224726,97.54573439709836
00:01.870,-0.22206758021161802,1.0221487915052585,-0.37,-9.853931573779283,21.842672425814282,106.64914432541798
00:01.892,-0.2382614956131489,0.964988815946714,-0.39,-7.568591490711986,17.683660441458727,101.9862782277503
00:01.914,-0.21028004251659077,1.0196396348842751,-0.35,-14.651184687338429,22.90212144969145,99.51684543169542
00:01.936,-0.26745527806875874,1.0373366300374498,-0.34,-13.544914079893795,19.315985968246725,98.79392723914187
00:01.958,-0.27263073819311406,0.9772804886887891,-0.39,-5.456653546381019,21.28639143981484,99.67088565318645
00:01.980,-0.3732123050349008,0.9702490283022549,-0.37,6.184047050252464,24.83375746787635,96.73747736515396
00:02.002,-0.4400579214331748,1.0490765928515087,-0.31,-4.097898867846987,19.505728100636194,91.8273196850183
00:02.024,-0.3828330056629425,1.0922987420304315,-0.36,-7.42443587270785,14.686646252487424,86.10825303522994
00:02.046,-0.387067299484636,0.9159183518785078,-0.39,-16.417842313302465,19.574586323675792,92.40770547603641
00:02.068,-0.3201060434512497,0.861611760644755,-0.31,-12.90915716539419,22.42257030259221,90.43426367772064
00:02.090,-0.5269337658644351,0.7953951236511849,-0.29,-9.48349872475343,18.58631691666305,88.81656095854092
00:02.112,-0.5787372979157804,0.7300455756663338,-0.36,0.22233728082847878,14.637086894928794,91.11348349332766
00:02.133,-0.5548530958851878,0.8449448246653528,-0.37,-7.919240874093308,17.381126874048093,95.26217949879529
00:02.155,-0.5784941935603538,0.8412074608730508,-0.34,-9.910366822084578,19.113953469819457,93.40928406460085
00:02.177,-0.7410733313284666,0.8155815193911955,-0.29,-6.101503807175066,19.426455622249666,93.41395069441033
00:02.199,-0.7130420875356596,0.7443023518485926,-0.34,-5.926872322889429,17.59125676295857,84.16624139740301
00:02.221,-0.6953917578543967,0.8484137464423916,-0.33,2.612594477963292,17.028212332640717,81.07580200791885
00:02.243,-0.7217676443907235,0.7440431053903718,-0.34,-4.28317041555564,16.351942982891067,75.52906995376087
00:02.265,-0.6634498470288093,0.7849849655012957,-0.32,-9.384224620858383,15.484262388005593,73.52437813689684
00:02.287,-0.7458129520378998,0.71159734958979,-0.31,-5.598575809590713,15.214332527955307,67.42982602639454
00:02.309,-0.776510691542065,0.7536744734365122,-0.29,-2.805141733549014,14.143823923002195,61.247404295991316
00:02.331,-0.8249760473740411,0.6798005420670975,-0.28,5.926939133651346,11.642643578086245,57.14186807345376
00:02.353,-0.7609818489298585,0.7270856745184198,-0.29,-2.583188845772758,14.13629555177114,59.624267606609706
00:02.375,-0.6823598572197045,0.5780702641184924,-0.27,-5.103409736440619,14.767747778634877,55.61073369940627
00:02.397,-0.7643328083788379,0.609268429181919,-0.27,-9.810589361057172,12.35797544899556,51.96540769330864
00:02.419,-0.7772144742481057,0.6528968522933908,-0.26,-8.759963176846586,14.922672565605671,60.17528638906325
00:02.441,-0.8543298532666056,0.5671167571048442,-0.26,-5.5034247743916636,12.36706117441516,58.80845961359237
00:02.463,-0.8501640380542618,0.47219833813012774,-0.25,2.217248032741079,12.21323233628577,62.03867326653905
00:02.485,-0.8893962261326569,0.6113038643222661,-0.23,12.669435481460006,12.696424453248657,64.41334988649939
00:02.507,-0.8435962963941208,0.4787599198535246,-0.23,24.815195219524703,12.632284059623084,63.72115868838806
00:02.529,-0.8657402257792003,0.5037575908542596,-0.24,26.941043997222987,12.40594735366525,56.38889710349978
00:02.551,-0.8520677031521985,0.5434642548426867,-0.25,19.609856296643343,12.085524144943209,49.0561069203729
00:02.573,-0.9156663498738984,0.6142156097273546,-0.28,8.23245846768147,10.46934492484694,46.06993393982992
00:02.595,-0.9196102922983174,0.3862787695662102,-0.25,25.850373987824206,2.099109512323277,52.78184187653857
00:02.617,-0.7767241462379901,0.49248068082261914,-0.24,27.74223171989426,1.3009440708128976,49.720070892961964
00:02.639,-1.0465520332286997,0.47534648879879626,-0.24,29.885059820152957,4.802205188049183,50.84102365286688
00:02.661,-0.8945936169006145,0.42361792406695814,-0.21,29.8335136051725,8.647443257029705,53.20250680306196
00:02.683,-0.9592044029137528,0.48846388681188374,-0.2,26.574681413641972,8.81406603486904,52.390091710604075
00:02.705,-0.9206923710921319,0.5523916218794324,-0.19,20.51827873842902,7.129488661751484,49.13484199808729
00:02.727,-0.8699368271142315,0.43215262896624285,-0.2,13.708730697766336,7.349488013946437,45.96019614775911
00:02.749,-0.9049616784857802,0.4903919976545221,-0.19,17.638588285507893,10.061247785987463,43.74682022026242
00:02.771,-0.9163289493370665,0.39910130674667893,-0.19,23.650205739557347,9.74589837894166,43.709603362029334
00:02.793,-0.9206213932953151,0.40358984156720434,-0.17,25.28484478298966,9.316014519947595,39.82496694048488
00:02.815,-0.9003061365514737,0.49745661174470823,-0.18,27.680371512587655,5.661633775476425,32.026276472336214
00:02.837,-0.9672691295267054,0.4611193047860344,-0.19,28.78714555939287,2.250336578144483,25.978350746509275
00:02.859,-0.9362584642102558,0.47334046355304166,-0.19,23.54653188840265,3.1410865826947316,23.397641104449118
00:02.881,-1.0004598330171737,0.4649368557268326,-0.15,19.69229605203981,2.2353233380597834,18.893472484365148
00:02.903,-1.0178372138571798,0.4121183690368435,-0.14,14.612059743765982,-1.139820535551603,14.356440278894961
