timestamp,accelX,accelY,accelZ,gyroX,gyroY,gyroZ
00:00.000,-0.9761706544962812,0.4176948929337538,-0.08635746866173642,10.653880513189558,-0.6674644815325187,0.3466869330248711
00:00.022,-0.9454919123158966,0.45277683925467993,-0.09580969804265285,10.776423805378247,-0.7165838281878215,-1.1817462375820262
00:00.044,-0.9116007014890785,0.45829441190485876,-0.06863024335240718,6.429256964424854,0.029431941992189292,-6.12387511415339
00:00.066,-0.8839425621492837,0.5657975027572347,-0.16178757168950098,0.6326800799375293,-1.1459135606948596,-19.421579333442107
00:00.088,-0.9121972799423363,0.5795689308254152,-0.12064379283452237,-12.778741481030808,-4.337547091955474,-37.713275843798186
00:00.109,-0.9762792526923135,0.6506883210624431,-0.15515346920980919,-20.277356649805554,-8.528376172157978,-56.713587496438834
00:00.131,-0.9866660836880138,0.6607858988217478,-0.13758403640261893,-10.513207289720935,-11.03583410054037,-73.41194959054533
00:00.153,-0.9325791135689452,0.6972576369174116,-0.15431223647575046,-7.029514194169315,-12.589186680934345,-83.23506909581552
00:00.175,-0.9447610512545959,0.7136035362567397,-0.18509486797611957,-6.552979361252858,-12.927887297110212,-90.78917957465319
00:00.197,-0.9509104913838488,0.7311737825123814,-0.140413730462283,1.2931041308250288,-12.47473591025789,-97.5708512502284
00:00.219,-0.9505634794617229,0.6671697122532154,-0.17211834601142403,5.855456150510424,-14.332363504881632,-102.65633615643632
00:00.241,-0.9120102946278164,0.7435954216854884,-0.1597542984602318,-1.4189552317855543,-15.57359135850755,-108.0604863373679
00:00.263,-0.876615721988409,0.7841846525666543,-0.18684611617674537,-12.206985690302707,-12.532349731099957,-113.07942755861936
00:00.286,-0.8631806940551938,0.7663755472740131,-0.1384380117469535,-17.985742698736363,-10.305931785340299,-116.18716188147985
00:00.308,-0.9116373554472054,0.7844556567824008,-0.12430772777262404,-15.375337500645134,-12.903361638166594,-120.98400847805752
00:00.330,-0.842412715483296,0.79884618391381,-0.17342530160382438,-3.915533168606911,-17.82970213592298,-125.96265864423601
00:00.352,-0.7779321746386095,0.8026746999033157,-0.1444388266676162,7.657888421526455,-19.885294084984476,-129.72554311850251
00:00.374,-0.7834800274395497,0.8860237653696563,-0.13930138749469576,6.168763915063904,-20.688407391123853,-132.93721546593343
00:00.396,-0.7265108244198203,0.9177742782091501,-0.12462969569521816,7.945696295657172,-19.274355383603726,-133.36330338232273
00:00.418,-0.6704219398366029,0.9383201796957472,-0.19610488035920448,14.74725095504583,-18.92333722348008,-143.48658929354696
00:00.440,-0.635029602315548,0.9854830176566031,-0.13295809482905582,12.678947732970782,-18.05258556849238,-141.60250197317882
00:00.462,-0.6016578850906292,0.9966840520647131,-0.12966691279647063,-1.7874741654633912,-17.025102696195905,-136.20983252628645
00:00.484,-0.5279442926037466,0.9690774316030959,-0.14075082808738937,-0.05229189843543671,-15.462603105225824,-139.3904360071402
00:00.506,-0.5220767744767254,0.9523719179054498,-0.12522408529537035,3.9340085234699917,-16.552124357083393,-139.13518911027688
00:00.528,-0.43817826529657095,0.9896544097598903,-0.19305509103137578,8.317560211296804,-15.85755666621755,-140.21413999933648
00:00.550,-0.42412972187016545,1.0594655506000836,-0.1228017861093827,-0.27271254198125777,-12.250842708471854,-140.6234668516662
00:00.572,-0.34863883052321065,1.1187294461525232,-0.1553711826828912,-7.431192565245908,-7.856635402685699,-139.9140710211745
00:00.594,-0.30481523087020296,1.036321480201218,-0.1496595190751802,-8.102984275408364,-4.69569084448648,-138.27130834039906
00:00.616,-0.27458385402515584,1.0064011984398933,-0.14361509113481152,-3.3169538734965056,-5.917989617925659,-138.78057758773906
00:00.638,-0.1976736640721022,1.0843634194964302,-0.1702715661340759,0.9737997266682556,-7.735056835402208,-140.98757865732313
00:00.660,-0.1604168678663693,1.0343872761270674,-0.13521255416726718,-0.03952032303137987,-6.234824389762168,-141.12094786798698
00:00.682,-0.10806252464593114,1.067658802534268,-0.16829506816831627,-0.5942188236318456,-5.6293576198015804,-140.0438996590954
00:00.704,-0.03076399644956462,0.9927465511099792,-0.14636298040998688,-1.0839048527578654,-5.5319339352504135,-138.7695742319358
00:00.726,-0.055355829388634495,1.0007031502789767,-0.12500340087343437,2.6455819950058364,-4.376901688600487,-138.9229419951763
00:00.748,-0.015753089395991748,1.1007049869743382,-0.15428982324612267,8.546240116288276,-4.732687854687919,-140.00840999757315
00:00.770,0.045939655396405474,1.0679465288622658,-0.13407088918875928,2.6099893627164743,-5.448920357566053,-140.0076457214682
00:00.792,0.1638826051086968,0.9512015695676967,-0.1075084685924255,0.19508581261985003,-3.979714263336596,-139.43426326285206
00:00.814,0.21001024718244413,0.7825408221101763,-0.09026251966089142,22.55130247179228,-2.244745541649753,-134.55059449279693
00:00.836,0.22971009113559604,0.8017050456925956,-0.12669322637785158,27.35802141275619,-3.506358312474982,-124.70857855935229
00:00.858,0.2843214259247819,1.0107667739541186,-0.18854632170971736,6.902341854272806,-0.15831513417159376,-127.35187765613318
00:00.880,0.3068722615654619,1.0251611663743656,-0.11070368036370579,-15.606088874020783,5.610615973275125,-129.4326713007306
00:00.902,0.31738398008217544,0.8681751258329151,-0.11512659249966979,-20.338772876180123,2.329603486577536,-126.28393230072747
00:00.924,0.3863990962168713,0.7252024566697562,-0.13575279893278658,-24.748929054095242,0.21791487599797832,-118.52174502190816
00:00.946,0.46805626180666365,0.6933466511347606,-0.12318102502513759,-24.010715335134375,3.5726317788126556,-115.26273097444067
00:00.968,0.481656353567947,0.6427664229911867,-0.17625538271138233,-18.978286889286924,6.112515310908436,-109.39743870390105
00:00.990,0.4613690992171045,0.6600468981396059,-0.19455374023178273,-14.172150920316652,5.829994912253429,-99.61041818569822
00:01.012,0.5502147810452281,0.6822364186818564,-0.1664774451418683,-13.32958131674985,4.082697186910968,-91.73854861039413
00:01.034,0.5764438552719842,0.6705707831726396,-0.17476323735278915,-20.11051497212919,3.628111745921189,-86.52597048289698
00:01.056,0.5797993810596249,0.6699142546550929,-0.12932733211154768,-29.33405349676217,3.9854632738629925,-80.26192129631274
00:01.078,0.6036584582166823,0.5784013216466376,-0.1553090781674336,-30.849666082169026,2.3998570409196454,-70.96698221706598
00:01.100,0.6566909335588651,0.5495439730414736,-0.1749348681927458,-26.629554197991272,0.34915755547703564,-60.621428059126444
00:01.122,0.6430363303876171,0.5557498662188738,-0.1459472952694699,-25.695378298476463,0.3524870759583016,-50.094344689936875
00:01.144,0.6617849259731458,0.613686353007803,-0.17742349877601782,-33.41077312817939,0.4696097671932528,-43.22297478454769
00:01.166,0.6743093697264108,0.5872365824425066,-0.22458392647475747,-43.68147994065234,-1.098789708072469,-34.52127052393695
00:01.188,0.6968396565784126,0.4875080685720928,-0.15904698469268452,-46.89427211274531,-2.9387834416166125,-21.310024127374156
00:01.210,0.7140622450339049,0.3591226926116961,-0.12583081003393234,-36.57264657220336,-2.9609208140315952,-4.124309537218488
00:01.232,0.7202876609269827,0.2806079391072936,-0.1448125774743312,-24.785363112091765,-1.7281935168230071,15.945739288527026
00:01.254,0.6843195337529699,0.21975402762991672,-0.14711253668046786,-13.079866690185705,0.1686641787461422,34.61642745155711
00:01.276,0.682758964241372,0.3123222375090075,-0.18557593148509274,0.9440783391908052,3.3062748832792725,54.3044509280662
00:01.298,0.6026453222649891,0.48916428308384524,-0.16676393812390294,5.669246576270155,4.487923724872377,69.7218627128817
00:01.320,0.5935966322740391,0.5920462354465211,-0.16722372082124043,3.332150515679614,4.669513091405991,81.33289256010809
00:01.342,0.5916380783683187,0.6365585071841361,-0.13968914554891565,0.19600677049401793,5.974781118338877,91.27305095051408
00:01.364,0.5657356935053199,0.630397140769553,-0.2029317297751131,-0.823053494042664,7.365940264075205,102.1300594940186
00:01.386,0.49958686137217023,0.5426354041066044,-0.1770692924479856,18.098403391599827,9.266190769944227,113.08156673462325
00:01.408,0.479741459402671,0.6158441560874811,-0.16172144441603428,51.78131475140437,9.365887566543073,123.91928864998859
00:01.430,0.4135838050696433,0.7857295586081219,-0.12388178054765425,58.473763956892796,6.985806389774843,129.05242279085186
00:01.452,0.4400988657733105,0.9166588825352767,-0.14656685280455642,30.716467409840245,6.51657612746223,126.01892635483968
00:01.474,0.3841233276791236,0.9346744922977307,-0.2013037918086207,5.658900586028309,9.45478573127081,124.3230669187874
00:01.496,0.3756131897780894,0.9502895726655702,-0.17091949154540675,-4.523255021424757,12.155211968442904,127.32544999235395
00:01.518,0.3265246980765993,0.9590053129399396,-0.11821842118164509,-9.620096550112851,13.545325469000653,124.89463118472241
00:01.540,0.3100596549197839,0.9057829322840046,-0.1398452870719475,-11.013424026814334,14.830275568991254,121.53050575296639
00:01.562,0.2504102154520167,0.9237541923693778,-0.11130853817493323,-5.063234309616785,14.544424954016131,120.37768883266355
00:01.584,0.21788820480419668,0.981287919579418,-0.1789806910622991,-5.268768022658523,11.546349055330554,125.88931633983411
00:01.606,0.17011762226537794,0.8212120335096857,-0.18326387226313734,3.8214788443387144,14.387330357957461,130.52549329372374
00:01.628,0.05449707025390089,0.9633105202448093,-0.1511666278441383,19.759050011094335,20.096332756994812,125.4198092052917
00:01.650,-0.02449759728722192,1.1138785127864568,-0.18386383710534887,-2.7209218692910144,15.812430409422461,131.41445151310418
00:01.672,-0.031668162677790206,1.1634747030362689,-0.2335562272826029,-22.610393384988548,16.274739074336015,124.47839079718922
00:01.694,-0.10856683828000982,1.2710338286221396,-0.28121736131840913,6.910720108195474,20.932122134563233,112.66742262085535
00:01.716,-0.14939523217018102,1.3495048170650883,-0.2087783326920031,11.647759801399765,17.752928299235105,105.91881703911922
00:01.738,-0.10761229907791975,1.2148027419077114,-0.09578468450886504,-13.565197162785237,12.82776134404695,100.1644324162212
00:01.760,-0.0351650028682214,0.9521795007954592,-0.16339279669141715,-34.77917126089295,11.875439178317261,102.43320032213876
00:01.782,-0.06357761759433428,0.7075602071720072,-0.22386551759554874,-34.91005381579204,15.721079934856698,113.23174752005366
00:01.804,-0.16809124666660086,0.641437277134728,-0.25899448461211755,-8.474020381559408,20.992133547403512,124.66556722766991
00:01.826,-0.3311675625294172,0.8241582200508843,-0.22221807560128554,13.688944359749478,17.543357567428313,132.42334591062277
00:01.848,-0.37092099339594614,1.0529838018296833,-0.10602036634902176,6.289902934542673,6.057793547964156,130.32679339396003
00:01.870,-0.36173732170925316,1.1115390993362113,-0.1750921901049401,-13.785732672862071,2.4011743395287275,125.62302627380915
00:01.892,-0.43580666249374633,1.0138259606389732,-0.2028964518196523,-22.039126412401504,7.890395569557551,130.34839252493478
00:01.914,-0.5746772032830532,0.9527791786809972,-0.19224585812293135,-11.619341259130904,7.878480469903551,129.43465644668422
00:01.936,-0.5931542179722564,1.0598344944411038,-0.13161961488034038,-3.006301030615364,8.615659009703595,127.39470102386241
00:01.958,-0.5918287802693807,1.0357204455402629,-0.1326906219535644,-14.424139619180941,8.078652396387502,125.14202019084432
00:01.980,-0.5778250594241734,0.9210422316234139,-0.21120599477529692,-15.889277285857988,6.397705753935638,122.00477580697117
00:02.002,-0.600250067949244,0.8261941119915454,-0.1981355545886872,-13.885423944731807,10.732604958971688,123.70639710803333
00:02.024,-0.7276186301994744,0.8603884118966575,-0.1711588663608773,-0.28670448753402716,10.71404291827927,122.53726344412063
00:02.046,-0.7509368794438136,0.882978825266362,-0.2029622381892966,-2.793828215193282,4.356082192279462,119.36738919810954
00:02.068,-0.6769513106339067,0.8817092480860037,-0.17803043109718794,-8.72374600473272,4.1344596996983505,116.19199937442477
00:02.090,-0.7320543684702779,0.8247889793261646,-0.1990886873625307,-12.144026802470899,8.504825667686264,121.91165848234643
00:02.112,-0.7912772085698923,0.7473967150594237,-0.2328871247839063,-7.8988332153143155,13.163160880105947,123.7030272680633
00:02.133,-0.8309590066460227,0.6931765424049438,-0.1750468496877505,-0.9439829056637858,10.72225585973439,124.88947578375888
00:02.155,-0.9148953076948834,0.6666940200731463,-0.21312063781425697,0.4202956202042464,4.302038042517312,125.59278559018607
00:02.177,-0.9097054052802093,0.6979061982088008,-0.2259018338480118,-3.978453057725976,3.5118411602814517,122.92887226293192
00:02.199,-0.8914459315595735,0.7033908589828577,-0.23967988962292627,-9.006099793284395,8.313371404902918,116.96874579710698
00:02.221,-0.934750467672348,0.5616968154016032,-0.2046028656232419,-10.232198966391879,12.97374197966246,108.41976398661143
00:02.243,-1.00106284330084,0.5177837097785086,-0.1517860733453308,-6.473599009418769,14.07352813964595,98.90261234113542
00:02.265,-1.0282940529971285,0.5047894361719849,-0.06609720064444967,-1.7597986321910548,7.700966948602863,88.74958268968648
00:02.287,-1.0560226804227375,0.5350789435060864,-0.14539003508243262,-4.09544550699127,-4.134539036337123,76.05201626642268
00:02.309,-0.9516675176475896,0.5297546785886595,-0.16823956174431445,-14.700319490856877,-6.386368031090002,63.72728899482939
00:02.331,-0.8971854196103968,0.5128749310177009,-0.1964329230003648,-17.966240463017368,6.208355430381395,56.9708214321795
00:02.353,-0.9561156636689604,0.40090899329158636,-0.1881519250425701,2.0644524656941057,13.031512346165655,50.22813969960598
00:02.375,-1.0326319397999104,0.256133399973668,-0.13562908819060457,35.03599848467046,4.044234948697261,44.67718435950599
00:02.397,-1.0144433768886916,0.2995435985794628,-0.14129580586824134,61.474382994973894,-12.21380591881259,38.31631748329115
00:02.419,-0.9573924513474654,0.5266761825836856,-0.1475181882045287,61.85396428868873,-19.634522383101356,31.048624288436976
