timestamp,accelX,accelY,accelZ,gyroX,gyroY,gyroZ
00:00.000,-0.9518676980924947,0.45787680156934424,-0.10710571876105807,2.379092879879064,-9.5853441088714,-15.290194586078828
00:00.022,-0.9376245059894592,0.575765350918195,-0.10996567209381333,8.015139865205134,-20.106967869655048,-29.041844502684793
00:00.044,-0.8970884057285661,0.7720393670130896,-0.11801641304162461,5.891210906514711,-23.22631041155348,-43.49934756436221
00:00.066,-0.9409179890438722,0.8484025297196717,-0.20835122716153148,-8.042908525534106,-20.160868908198896,-72.20488149543908
00:00.088,-0.9979687228549781,0.8812507500836517,-0.28051909388281304,-9.129190693232474,-15.319042453704991,-103.76245864344295
00:00.109,-1.033028874959003,0.799016929354289,-0.24639789382073574,-2.8504654119179342,-8.98660080358954,-123.81124067761155
00:00.131,-1.0068322526725937,0.802057481538654,-0.19760534013950312,-0.82874619409144,-11.300839980443234,-141.20959574760963
00:00.153,-0.9484513075563962,0.8388360682846525,-0.22873390914880112,-10.475051556461427,-14.306313509651433,-151.2645304305048
00:00.175,-0.8895968892902276,0.835306261083185,-0.21178478371061815,-18.109911891624527,-12.226917499355924,-150.18745700494668
00:00.197,-0.884290518669519,0.7439558512380792,-0.22102557209053944,-17.817024490009917,-12.561554937011747,-150.62518273354803
00:00.219,-0.7998633320345795,0.7277089430601044,-0.15438993468816886,-12.502726289147374,-14.578959372706718,-149.73851897898592
00:00.241,-0.7786068640921625,0.7803157574445754,-0.1785007043152312,-7.5522529975513235,-16.157018750874688,-152.5928419638943
00:00.263,-0.7757731329282276,0.8350064600401392,-0.16174019200553813,-3.958458935007679,-17.76124845302206,-147.91591721014814
00:00.286,-0.6579064417413258,0.8328991384176109,-0.17301659751791634,-4.462249042266236,-17.3133249746383,-145.15148746721823
00:00.308,-0.6625893389799126,0.8467296080886979,-0.08802012137057072,7.7988156440684495,-13.090676040065668,-138.51810807032413
00:00.330,-0.6124221346790807,0.8255354721930518,-0.1079911626039332,24.061756174427828,-19.090080025834038,-144.2371217054289
00:00.352,-0.5302765924619595,1.0298515168734965,-0.19769034900317478,7.700553345119996,-20.55329659509484,-133.9931810730012
00:00.374,-0.4222632796559446,1.044775423084795,-0.14603487583684222,-6.671457347930113,-7.717539439046633,-124.9957040351866
00:00.396,-0.4778898990052427,0.9410514847639094,-0.09041593184665103,-15.748869696078208,-4.877001626542593,-125.01225237818547
00:00.418,-0.3472899723583775,0.9561189870866099,-0.10863574735579001,-16.49577675973409,-6.701053464037819,-124.47352722507635
00:00.440,-0.3172368303320377,0.9056300637050823,-0.16639082639652691,-9.099188728612726,-1.79948660551669,-119.01206786755564
00:00.462,-0.29677637747692936,0.9497954676570884,-0.1571366920951608,-4.748770308234272,-1.1622984909652962,-112.63511288275686
00:00.484,-0.19745819597202857,0.9677003634904695,-0.18715897696177924,-8.523075976335477,-2.1541638030094132,-108.21407039876607
00:00.506,-0.18721429808356044,0.9969513106110537,-0.15731179850413923,-7.106536610608062,0.1288938278198296,-109.30172005155885
00:00.528,-0.08429837472621746,0.9859726235301354,-0.17713274473059112,-13.659678140897825,-0.20877685109655406,-108.06413701158122
00:00.550,-0.05138274372483338,0.9931150695112212,-0.18986442987263777,-12.18137190264973,0.7600674342724513,-105.86283213432266
00:00.572,0.005521666213819091,0.9478801331428246,-0.18497448681399528,-2.2198114592016083,1.1618001927617823,-100.61714500089894
00:00.594,0.026754535334559452,0.9914593104181884,-0.22229076415557342,-12.506201643135542,-3.081095507548844,-100.49391781502749
00:00.616,0.1533715189398427,1.0042834552140725,-0.20901087129151277,-3.7013441852959916,-2.3049986959360353,-100.00993874103749
00:00.638,0.08982194202268204,0.9359715309816116,-0.23332786542800257,4.276609085201467,-3.727434464606289,-94.86142551851269
00:00.660,0.14619621811128367,1.0166607877862983,-0.1951473977392161,-0.04938548282142204,-4.618940356051119,-97.10221519438223
00:00.682,0.21663045730584599,1.0174201379278995,-0.20816190851164426,-4.364862731668836,-1.960158353440854,-95.27186380481024
00:00.704,0.2628573500326889,0.9555532368698939,-0.19797148851417098,-1.1566058152088659,-3.2053106246861285,-93.12426449463382
00:00.726,0.24771584530653756,0.9221062979179645,-0.2001277254714225,-0.1997643356680074,-4.667645805624765,-91.78461264070124
00:00.748,0.287706476400851,1.0034274172558333,-0.1911084221585039,-3.476585122247507,-3.0369237485529315,-91.43252909493052
00:00.770,0.3423733097541541,0.9603637839013038,-0.20477134088518598,-6.483493629384682,-3.9640871078753857,-90.35846356175595
00:00.792,0.3678075976829657,0.9103523932311425,-0.18949138171005347,-9.330757859606843,-4.9554007368436865,-90.30180203027712
00:00.814,0.4300256243460401,0.9102941504335966,-0.18345477996917803,-17.090940993409884,-2.669893469924001,-90.65558416234215
00:00.836,0.38853301599501555,0.8564205893519377,-0.23008197297496072,-22.165821304546565,-2.2571342741460545,-89.20772018912193
00:00.858,0.47296407849422767,0.8085393807871107,-0.20927203320559618,-19.709285997474126,-3.7180275734763475,-85.87562097474948
00:00.880,0.5134832557388141,0.7866755987043895,-0.21305302851388067,-18.822871084600425,-3.889731440503651,-82.28783399031926
00:00.902,0.5308683829967283,0.7345470178124782,-0.1700138167637752,-18.669096866869367,-2.3476225261512624,-78.72253388239646
00:00.924,0.5505966681988954,0.7418616403899517,-0.16030399318261712,-21.096855752877975,-2.46790687885989,-76.48636094548279
00:00.946,0.5392927667228855,0.7726407692726124,-0.19365250506458498,-17.84031679342769,-2.7177651851117024,-72.69350388357847
00:00.968,0.6124044799160636,0.715071292293178,-0.1447586092203314,-14.79273459547753,-3.615149742113175,-68.52967046026173
00:00.990,0.6667229228390237,0.7521317740512543,-0.22102858616130477,-20.734473397738682,-2.3905990885536075,-68.35790179875427
00:01.012,0.6403289987751191,0.6936938685935027,-0.1728187040643192,-34.621572578608905,-2.1387895580098992,-66.32668541184808
00:01.034,0.6187342631326905,0.553246408246832,-0.26267319402063166,-24.833407699025564,-5.942486989662999,-58.25302853106564
00:01.056,0.6858569887689046,0.5068370432668129,-0.24424289430098925,-13.317972349411846,-8.011363851520414,-49.47573465746003
00:01.078,0.7188940133449094,0.6203074620738691,-0.21606653550046165,-16.96231446376794,-4.907602742475973,-51.75663735694622
00:01.100,0.7289523741950061,0.6671716665167129,-0.2217509245297767,-24.349137631440055,-5.079403407889243,-49.79435882736495
00:01.122,0.7334020061242373,0.644579953484673,-0.2316914443053484,-31.33943526169159,-6.662175097374615,-43.57057573107727
00:01.144,0.790638795687085,0.5737051941508359,-0.18279382563843022,-36.347478594231795,-5.313789636408844,-41.310205117621706
00:01.166,0.7179866282938261,0.4811887617014514,-0.2293180279671541,-45.699771348438794,-3.2850982868489256,-31.95577368448484
00:01.188,0.6863486546771694,0.35223256173597484,-0.18318222829809042,-40.233134807571865,-4.9533733905586494,-18.42090008444664
00:01.210,0.7205739269666148,0.24128889652177693,-0.20509997281042258,-17.638095508700996,-5.178934820930031,-0.5974007784871387
00:01.232,0.764147192430008,0.28139816307080245,-0.18428745540386052,3.2624656531107514,-0.027217167701520485,15.877967285784782
00:01.254,0.6594021739002272,0.4337126337762089,-0.20265336654716945,18.92981816248816,4.248361460530874,31.388923741367204
00:01.276,0.6418196630770746,0.4671595422791717,-0.17062268860795993,22.910020112407587,1.9777784040103692,47.77462067354383
00:01.298,0.697327241865194,0.5403759472019808,-0.18930433763791032,5.737715520148444,0.6883138404092932,58.18885973788219
00:01.320,0.7094285615296615,0.5937114899921934,-0.18950023621774353,-19.507414538132977,4.068493020344328,59.927510092332895
00:01.342,0.7039776374555798,0.5740488659683156,-0.2535868363827259,-20.712909713305102,5.500731913569784,61.94680978753785
00:01.364,0.757139420276196,0.623586627939961,-0.2317091659585423,-14.065531910264575,4.3407560393372275,65.36970296318766
00:01.386,0.7026606704962562,0.506691358992736,-0.20521916000383306,-13.293820186266483,6.5678277345899625,70.3337486229032
00:01.408,0.6591733940036916,0.4984775008159851,-0.2547543305719316,-7.203913479029026,11.546408678992373,80.11542326599411
00:01.430,0.5995616520321976,0.5742424833027469,-0.24981320527301093,7.59780358599211,14.20522594604089,88.84468339894826
00:01.452,0.5444084949269692,0.6714389139076359,-0.21056291531422233,7.397885234041426,13.635807902329425,96.25147416842883
00:01.474,0.46911962615592784,0.7742374013166454,-0.22898963057859706,8.297557158135541,15.507153516276242,100.22596082991193
00:01.496,0.4522582637157273,0.881874953116058,-0.3135831133549,3.2351414026555423,13.861284213011718,103.16536113605989
00:01.518,0.45364843605160715,0.8381276462127265,-0.28948606307149877,-7.669143362396256,18.520825868505533,107.16138858592419
00:01.540,0.3832572765438656,0.7605758098403106,-0.2961131155508744,-10.789249154230731,21.72205399243939,110.0989792611826
00:01.562,0.31477618742182195,0.8523073395750338,-0.2997582834283662,-7.016032308426653,24.498914441580492,111.69557535078786
00:01.584,0.27963548514805764,0.9180111089069689,-0.2978126057655118,-5.145408387491032,23.415256818820477,114.24101130210913
00:01.606,0.26123144969799295,0.8680305104188165,-0.3118023629890618,-8.38417115352988,25.413880722345095,118.09871141747973
00:01.628,0.2067446739546342,0.9049040962462402,-0.29456686391266235,2.47569899254992,28.43269422740531,117.01763281059097
00:01.650,0.12064377553821751,1.1256021454911718,-0.2514037426208159,9.252971981348093,27.259779463073045,112.5947275561968
00:01.672,0.14136012169935713,1.1260343438437774,-0.2927986779092354,-12.478449926656715,24.92563123848407,111.86647821045787
00:01.694,0.10985181789014024,0.9268376786370561,-0.3062401894545679,-26.08942494529783,28.752199602960065,113.35171823805297
00:01.716,0.019843273682953896,0.8605828368456802,-0.3164629324587634,-1.6195323924312304,35.20181545580666,112.25468142793866
00:01.738,-0.0697085853108429,1.0584894892421388,-0.29548257841319764,26.311206562463433,31.41092967262554,109.73854880477445
00:01.760,-0.09504735925424192,1.2805193925091432,-0.33424869699986054,3.341135614934532,26.138944531247162,105.3684060948032
00:01.782,-0.0673145596005208,1.2227216607118574,-0.362917662746615,-31.355404344852424,25.30901898300608,101.0692770872715
00:01.804,-0.1666762205320867,0.8063317703701479,-0.36563187800868785,-5.8233911280606865,25.793366385241768,107.00281143156614
00:01.826,-0.23681532967293809,0.938389697032529,-0.2958363598148166,2.723153218987447,25.815437990325464,102.24697492869647
00:01.848,-0.2540256951782006,1.09393490410542,-0.2713484875332562,16.17852861709539,16.05623341954349,99.93383617596689
00:01.870,-0.28373367399296767,1.071130731804319,-0.3277785730792879,0.3428379942396825,15.344155380193628,104.63269082134644
00:01.892,-0.269364313255737,0.950226712969273,-0.32005338296671576,-8.982289334188904,15.203816977621432,103.00217837940079
00:01.914,-0.3389492145941695,0.937741349784822,-0.30404190052598884,-13.728853822947945,17.72997825708397,104.34540350284337
00:01.936,-0.3611525148106193,0.9289414649994387,-0.23323661495149048,-16.822382567308725,18.700692542890582,104.68592479142391
00:01.958,-0.4416668456659317,0.8664242266258828,-0.30033222658931624,-7.783068299198103,20.220399660225855,108.36460057846423
00:01.980,-0.5114193030995414,1.0037535055248283,-0.3364155128957576,-4.692294948752633,16.816030969623675,105.32253507212363
00:02.002,-0.5543443506708845,1.1343334735898551,-0.27933884953936794,-13.052207865920467,10.084206473496977,96.84204834906748
00:02.024,-0.5464378327774511,0.9438240110382947,-0.3163772981790919,-17.809911951084775,10.304507260868382,95.32286270064434
00:02.046,-0.5907119549845007,0.8615492999520695,-0.31248215682729275,-13.92464615511327,10.091854098173602,95.3021836021999
00:02.068,-0.645340255222855,0.8741034708804397,-0.3434607704603927,4.380379015620272,6.582747322066598,91.77762003127702
00:02.090,-0.6790059846424483,0.894504009817551,-0.2831647083590074,7.96867207875967,4.987467841092593,83.29157303934751
00:02.112,-0.653734033346928,0.8524692802182874,-0.24650603897102183,-0.9083856819930645,2.747957493813156,76.67441454566071
00:02.133,-0.6066691033144257,0.7885316766526803,-0.3038843992823822,-4.3290691774129035,3.5571417833852483,77.1575515605238
00:02.155,-0.6921718328102361,0.7176466256426267,-0.3280817130089281,2.073443104887234,3.6249620008723444,73.8696719212865
00:02.177,-0.717572057213685,0.7750185683827755,-0.2544070844127856,11.563194752221179,1.8422719378268035,67.47757689941642
00:02.199,-0.7087552063995539,0.8367872835942194,-0.2633249736798598,5.351810552638128,0.8435787965902777,59.28168094300346
00:02.221,-0.7447596648685644,0.816776435653723,-0.2587077061532102,-4.8646273373585665,0.9134434498348175,55.30124933203347
00:02.243,-0.7737352160643912,0.8022307312083702,-0.24644236235516342,-18.588343200482637,1.9202220789669233,56.4002752424939
00:02.265,-0.70871985487067,0.6816989427243946,-0.269692858293355,-30.083060602218126,6.5675449661036795,57.649563343102116
00:02.287,-0.7369133964685491,0.616946142841628,-0.23148284890858895,-27.775781570060488,10.78944779405206,62.522781275020925
00:02.309,-0.815846027254325,0.5151376882087335,-0.29384611755224577,-15.946089321813451,11.29069133629956,60.8197050325906
00:02.331,-0.7999164535158283,0.558971775943979,-0.29692418532303827,-2.085632812747997,10.07590141810058,58.93592558578813
00:02.353,-0.853016752178972,0.5924379702365242,-0.30937849533667333,5.158086897352425,10.14276136005992,59.039803004560234
00:02.375,-0.8513077108000017,0.5124825846285705,-0.25948799158860847,11.14081683435381,9.700712938889392,57.60721059228532
00:02.397,-0.9004995049517629,0.4694306518307119,-0.2945464319365606,17.49275415440609,5.6262635276191695,56.22778144245361
00:02.419,-0.9137913095286269,0.44835393579590443,-0.27195241470324066,26.389988188094975,2.1018972891865264,52.47626812213387
00:02.441,-0.8943946803715794,0.47716309747178,-0.2548048129672352,28.463464624881436,1.7494814225202204,49.81712443592126
00:02.463,-0.8788231785442058,0.48858498197065947,-0.22724594940782472,30.242382728740996,5.346778968474435,51.18637332376493
00:02.485,-0.9409603319082787,0.5044320400167615,-0.23400299757376566,29.38529034523588,8.449770745798943,52.869150360462264
00:02.507,-0.9226137982323668,0.4871468971913496,-0.23698480243010883,24.88174858028502,7.984234147997927,51.10176015732809
00:02.529,-0.9515905072931193,0.4780724809147991,-0.2217180702612988,17.91036785585755,7.038272872137162,47.72658382884346
00:02.551,-0.8935671834360317,0.49976932491112486,-0.2055417252107232,15.80557723278004,8.423917402041445,44.77148971925847
00:02.573,-0.8994393294006797,0.4377880174357672,-0.2051372125194025,21.27787251725534,9.620039039301266,43.606136862462904
00:02.595,-0.945563115847142,0.4235454940264183,-0.18153808559630955,24.992592477937343,9.301373726841376,41.22035601106003
00:02.617,-0.9671934461611297,0.47278153459631733,-0.19806768825394785,27.329987880287742,6.556986850544804,34.1981456221885
00:02.639,-0.9375213178280685,0.4879549337455191,-0.24291185042102864,28.907146416284814,2.848158419707811,27.242542148504462
00:02.661,-0.9178001489427833,0.465787458378279,-0.18042863584969188,24.54974802398837,2.916446634997619,23.68127269581402
00:02.683,-0.9385245449767746,0.47265457388749454,-0.16092237530570644,20.31831219198697,2.2415467723162736,19.259667652128112
00:02.705,-0.9484831857596021,0.4248511718724291,-0.10643741963711682,14.859531726065121,-1.0611685105292978,14.122918382864167
