timestamp,accelX,accelY,accelZ,gyroX,gyroY,gyroZ
00:00.000,-0.8961991704661533,0.381577873252836,-0.13677197812283043,23.387370636914433,-6.045296848403754,2.619638977192282
00:00.022,-0.8635387764594263,0.42308858204226724,-0.0889131894398374,11.455351076383154,-5.1324471815815,-1.3719705309868615
00:00.044,-0.8894213784527889,0.49232348254553593,-0.1196054274981838,-3.6724143168421546,-4.014422018012569,-6.363744990770229
00:00.066,-0.9348587443910894,0.5598790736649684,-0.0969655784755248,-17.110118261121357,-8.181314748271777,-15.550706745151803
00:00.088,-0.9365448744986103,0.5801679614477608,-0.12911394146762972,-31.186065709942604,-13.037516932003006,-27.767852824437355
00:00.109,-0.9363113802350154,0.6279451707438894,-0.2202531429012084,-47.253170139074626,-16.288739777458602,-46.038970001778836
00:00.131,-0.9348267065915173,0.6809372172317559,-0.18418615044951098,-60.40372436350107,-11.966906588233504,-62.076299636953
00:00.153,-0.9938829052167457,0.5891883003110788,-0.21294167590147461,-53.34952177338204,-8.612801143472948,-79.91190243901238
00:00.175,-1.0024814937758362,0.5491266515395689,-0.17490593093216808,-27.12644225430608,-11.974462889188853,-95.65744515920095
00:00.197,-1.0166214582644244,0.5816308946163633,-0.199033468321703,-9.708544908641317,-20.41946220213997,-118.04288773770597
00:00.219,-0.9566784168051107,0.7275484218322069,-0.178274760835884,-14.427488614152274,-23.67443104565041,-132.15723793185856
00:00.241,-0.9572883784480416,0.7612776403381186,-0.2535293679510519,-24.746045807524705,-19.757332698094103,-138.96167932141736
00:00.263,-0.9304162517997375,0.6910960794769445,-0.1792180075974597,-21.93877944402454,-19.550729823720157,-137.1744416989255
00:00.286,-0.9216367006291494,0.5678197445713273,-0.18351137441239332,-5.424156030565716,-26.690692782266186,-138.21051524591908
00:00.308,-0.8383499131786288,0.5948316864630364,-0.23608357332243565,1.4928022069249052,-30.23720010605811,-139.80906996079645
00:00.330,-0.7979046866900242,0.6726358244055943,-0.2156735656163442,9.336889861555635,-26.540179676443355,-140.02573984489882
00:00.352,-0.7778971254106435,0.6962313186920723,-0.19245909206082426,15.42618146097652,-29.24883705419192,-134.96601172691572
00:00.374,-0.7579627811493748,0.6982886993329094,-0.20276103686042882,17.661657457337384,-33.45573168593975,-137.73911591982122
00:00.396,-0.707493667328871,0.7455384931987579,-0.2000232486478223,22.207629212887735,-32.11228368828255,-135.19977215115372
00:00.418,-0.6566236338971108,0.7857343951602269,-0.2255459824542879,26.91179728321721,-28.77350261900312,-132.6062464864809
00:00.440,-0.6346790543483477,0.7705288883185392,-0.17064062544196662,37.234447648942535,-25.625481901214606,-130.85366144143254
00:00.462,-0.6072339015352585,0.8051299583366001,-0.16755090354293975,38.968104826105645,-25.605249589772388,-131.0785223105445
00:00.484,-0.46195141182501304,0.8125501232129589,-0.1685231639149154,51.21464558665404,-20.042234212009877,-134.27200959054278
00:00.506,-0.42189992786909364,0.958621407282746,-0.16901496689942438,39.02646936166841,-16.030708093743158,-122.81855392643786
00:00.528,-0.4134191364477264,1.0342283824400191,-0.12444881342709478,14.03278016658823,-12.938545628627093,-118.78553050701137
00:00.550,-0.3443306506957484,0.9995866580719417,-0.16353041351729367,-1.7186949365197282,-9.949517317038975,-123.23397300656009
00:00.572,-0.32348210678900036,0.9391779593626038,-0.199619728081188,-6.684595936447709,-9.693018885961992,-126.77567279537172
00:00.594,-0.24770170141006265,0.9291079348075315,-0.15667811789813127,1.8278618529902846,-9.778234866819453,-127.98113127094724
00:00.616,-0.20763275185811578,0.9342223117065244,-0.1785026173016547,-3.9618496767689826,-7.795984071000928,-126.61626003538626
00:00.638,-0.15571296093489675,0.9964371669068687,-0.15683988360134046,-9.077500805284615,-4.796930008289349,-122.68610705443957
00:00.660,-0.1377177058406452,0.9818848610515325,-0.1345471678619885,-10.604283495687854,-4.9004333458713125,-126.48524797028662
00:00.682,-0.06991686977302555,0.965353225395211,-0.1513897918726289,-5.978497957329015,-8.244836614900482,-128.7107178573016
00:00.704,-0.009136039468388204,1.0039741444229802,-0.16430433149610396,-6.937147526155445,-7.054336255287695,-121.81448570816896
00:00.726,0.01595152125023067,0.9658244770023577,-0.1595344342344923,-15.259169478168905,-6.5020962803490026,-123.55346905369157
00:00.748,0.0636965933736655,0.9315056509205848,-0.18417691044285645,-14.779292689891957,-5.447221740164149,-126.35010364332138
00:00.770,0.09121099396197348,0.8664627310826257,-0.142414562641451,-7.459190286904438,-4.637419274106247,-122.75483600282047
00:00.792,0.13677724746296901,0.905845233638114,-0.12570468787177888,-1.3548465223483062,-5.087445212741148,-120.32487196808123
00:00.814,0.18770021290780542,0.8720010604792439,-0.155876475030918,-4.993577332876204,-3.0556850274734013,-117.95090417299147
00:00.836,0.1926375269319602,0.9015683495780319,-0.16636899300511257,-2.4307583655857434,-2.790619934747778,-117.47130228107714
00:00.858,0.27606623221919036,0.8476442996439287,-0.141982876376374,-3.7208754917453004,-5.423412247088671,-115.17992118380681
00:00.880,0.33232681230968775,0.8229814022852489,-0.15977771349989567,-3.534471605439003,-4.86098848930685,-113.81156252319755
00:00.902,0.3312163300397874,0.8492907779276831,-0.14974276977496537,-6.201118211977378,-2.4520334384099356,-111.27187032560037
00:00.924,0.37874456041452376,0.853039815298064,-0.17837919089412888,-9.236045639556032,-1.2252180231603211,-108.51187069738766
00:00.946,0.43284631255702316,0.787865775735459,-0.17739031142362324,-6.649402264947934,-1.514367521977722,-103.75014146385321
00:00.968,0.4953546735336857,0.7356183093558392,-0.16955093243638164,-7.667512648194655,0.3948028373165982,-99.1248069257863
00:00.990,0.5468217082342433,0.7153021932919862,-0.1579757201783064,-6.213544655858464,3.5408712413054766,-98.45185430043898
00:01.012,0.5169244576719402,0.6627485096369711,-0.20075156854381795,-12.467076253149454,5.0428648108462495,-93.83697295105003
00:01.034,0.4981856121369201,0.6228251785988699,-0.17512195852085224,-19.599798663029922,4.699573140583138,-86.83677704336333
00:01.056,0.4894595450241356,0.527629083072715,-0.13652705272197174,-18.526617764187176,3.3537301395791594,-76.5896685195866
00:01.078,0.545027819031156,0.48762368469737927,-0.14551541892942835,-6.120445500247665,3.0675821765628117,-65.8273390422797
00:01.100,0.6150522779520562,0.5058089265394315,-0.15232133118092286,9.002637401064684,4.262353645401224,-56.369701647923904
00:01.122,0.6592138575350938,0.5707814487374568,-0.11907628917895603,13.535389580663814,6.051984958985609,-47.53240294828133
00:01.144,0.6710336891037835,0.6946687443814856,-0.1215530313443816,4.210110083953076,8.941434521157467,-40.26202782055073
00:01.166,0.6429818908571258,0.6847656589867122,-0.18694902077488335,-9.989676645539323,9.416819487582323,-34.92360784556878
00:01.188,0.5886050573502598,0.6794490228872865,-0.1707146768200718,-22.29376699563986,5.610031966806789,-30.704513352252082
00:01.210,0.6765478762052699,0.5482926387365442,-0.20059966677202132,-29.363912968059026,1.5520886325211078,-24.61050480145304
00:01.232,0.6720781273759859,0.5265723385293885,-0.24417101077290357,-28.859914367591095,-1.3059722185449376,-17.62995358329501
00:01.254,0.6734435065901965,0.5808238318197959,-0.2543283447450061,-25.734511196833427,-3.049778720095014,-10.474746981087907
00:01.276,0.7314629022605744,0.5832505208266588,-0.2318011741361177,-24.434180030181988,-4.198069149987304,-3.1648124016520773
00:01.298,0.6911009409649729,0.553121835241106,-0.16205152244655935,-27.438456374842257,-4.997636026810713,5.419524951762869
00:01.320,0.6778354487770427,0.38444572953427747,-0.1670901276270848,-29.65405196563109,-2.307324871755724,18.75524573619965
00:01.342,0.7027865079673525,0.3341414458994415,-0.1308001373379015,-25.77661909700072,3.7813503186460498,38.22058642012217
00:01.364,0.6040833733194776,0.29083603352156084,-0.15965123524326957,-21.383039905477055,8.387226381405183,57.122199640201835
00:01.386,0.5868740490950882,0.3909942055924543,-0.12380880354921692,-17.87987119441243,10.98342417910592,71.77574136402664
00:01.408,0.5372237515479833,0.3972008114444257,-0.1887956890908387,-8.754936712248334,11.982010027996026,87.62425310223861
00:01.430,0.501927008103176,0.6199538993040566,-0.20547556316716142,-0.8088008160478548,11.643644719412505,100.2002881877181
00:01.452,0.5025319212758639,0.763253847097194,-0.22607558669602165,-5.5369836894662665,11.53549128936291,104.2426785702666
00:01.474,0.4730985740714169,0.792870200877741,-0.21830763736588496,-12.61431200231408,11.668672981853465,104.18300395727141
00:01.496,0.4590862238755435,0.8187595036586351,-0.28623529695039657,-12.992306319108312,11.769926110958346,103.25906094336449
00:01.518,0.43521821710452907,0.8285463305794977,-0.26875902538000995,-10.504449660974155,12.52203937789687,104.3147641077026
00:01.540,0.40048206154350663,0.8115182760738128,-0.26350908148542945,-8.036872729050444,13.42952113078466,107.24328255390138
00:01.562,0.34028535133258797,0.7941599155297674,-0.26668898227637333,-12.017312005907689,16.569583173638907,109.17445003824307
00:01.584,0.3285058149674389,0.8709000738784364,-0.2929415427295613,-4.416232328916412,18.91546447253654,106.54521249303961
00:01.606,0.2529786898669172,0.9584167042403219,-0.32379477657625255,7.256843684417475,15.398422935440637,106.9164466015084
00:01.628,0.25453989877774175,0.9773476441009158,-0.30379714328427426,-2.9237515464303887,12.136440525333288,111.07217322225827
00:01.650,0.28686184228310047,0.8478903174169339,-0.2583443434336619,-29.115294135518084,17.38433839370312,112.66896022500879
00:01.672,0.1826471164459909,0.7796156946832086,-0.26858690799670354,-30.578278085640797,23.805182811935104,108.83242118173304
00:01.694,0.09596332362744407,0.8669698867064646,-0.3475793172989658,-9.341766197480581,23.423273501686865,110.98185145324194
00:01.716,0.09584763832729294,0.9922402805270553,-0.3654571785674192,-15.112017360583073,19.61095706814467,115.51942671473726
00:01.738,0.08243471117916264,0.9469275876050647,-0.3139006349104584,-42.27234406703451,22.233374245328186,111.05121859057292
00:01.760,0.01172605714215012,0.9088985160266254,-0.3250216283354609,-52.146060749454016,24.93487493945938,98.143631134463
00:01.782,-0.086801771841127,0.8507732593145813,-0.33553297264671345,-18.945291462939217,22.219461088686934,105.5686692728494
00:01.804,-0.044738417400330174,0.8583536140376599,-0.3122131581496314,-9.070264624307333,20.941384634880496,113.2588865395399
00:01.826,-0.07603519517072489,0.9710985993567874,-0.3492964123902413,-10.325919989561756,23.19722862963334,105.77060074191637
00:01.848,-0.1686023328036698,0.9605299722603086,-0.3416055379597013,-8.87584292245156,22.878358705053692,107.648295942181
00:01.870,-0.21243224912587944,0.94035457883278,-0.4152578705936267,-8.343823178757365,19.37659872746967,107.95457364696334
00:01.892,-0.24764474845733192,0.9773562585482499,-0.3773460142137007,-12.116151574616516,21.274870045630813,104.4830099285014
00:01.914,-0.24219357677565045,0.9238122078927085,-0.3238431228606058,-13.813247548510498,20.74396714189664,103.1065527667341
00:01.936,-0.27245027828635926,0.8919472293907694,-0.37675165999823623,-8.109905994800629,20.783933363019035,103.44674808758482
00:01.958,-0.31373783161890323,0.8914032832544027,-0.3918665822828092,2.4209268038925047,23.88371003652579,101.70127872420773
00:01.980,-0.3900469740975832,0.9848969428747057,-0.30841994588352717,-0.7711593096684326,21.483647238564334,97.27424110826443
00:02.002,-0.3946870298723125,0.9540055406596675,-0.355569873852279,-6.34151342256697,16.375496989311355,91.45129659286668
00:02.024,-0.4049451046223939,0.9040749893067989,-0.3823306687020606,-13.667513989718778,18.311413457897796,94.23539998769023
00:02.046,-0.44208882991016746,0.8577465883317567,-0.36062999867615936,-13.953071313073385,21.858500715774614,94.75373870763134
00:02.068,-0.47974378745822505,0.7585053851521768,-0.3024296866277165,-10.423437539920053,19.943131654306253,92.94138010067387
00:02.090,-0.517435065639456,0.7754253553224218,-0.35046719651300523,-2.4783759213766823,15.92446330145186,94.25875301384585
00:02.112,-0.5184237548023211,0.8376024238013324,-0.3710705865287075,-5.621737016738841,16.784494667724847,98.05407188550659
00:02.133,-0.5967482701726196,0.8069020910469439,-0.35559804054847605,-9.340181569974083,18.918038241860128,97.82804786183607
00:02.155,-0.6140368306253169,0.7549852018335103,-0.31550760053376553,-7.140073468112758,19.471486029258575,97.34042452395047
00:02.177,-0.6619211201556471,0.7654440056505756,-0.33085904692504137,-5.952752654632418,18.243769355463037,90.13862406333004
00:02.199,-0.6945500829118991,0.8119356089648677,-0.327503073385215,0.4770953678137091,17.33549167732279,85.26411734835355
00:02.221,-0.7196330548785518,0.8230617462241381,-0.31931148350065464,-2.7537214698437977,16.709757639053457,80.05318981280776
00:02.243,-0.7336658689704252,0.7707177902673819,-0.3809465954098836,-8.205974572566925,15.829158814177562,77.03349314075189
00:02.265,-0.751211677796264,0.7381003501324193,-0.3078046016901135,-6.444174248358155,15.422373946607832,71.6286916370558
00:02.287,-0.7394685909128386,0.6961054033720157,-0.33966849191777254,-3.3909617497163693,14.507796900801187,65.13229346176342
00:02.309,-0.7082181243849532,0.7030326455581664,-0.27921763368792013,4.050084888756457,12.318331366387667,60.41579764010008
00:02.331,-0.7433449417078702,0.6906260896601306,-0.304442762788126,-0.986146058193251,13.744000845744534,61.56949651408473
00:02.353,-0.7429614283868043,0.6386993815809551,-0.2694899034315509,-4.605287987611661,14.843916097776152,58.591974521527284
00:02.375,-0.7460020522737897,0.6262346009788406,-0.2934089210961418,-8.93930504817817,12.827003490145609,54.83710001308411
00:02.397,-0.7762449822109467,0.6155756940214396,-0.2624928496338372,-8.856660176918144,14.590619185645961,61.10902484813045
00:02.419,-0.774832239351794,0.5622822401543613,-0.24896406967754794,-5.97338387207977,12.980838470357845,61.44826984838067
00:02.441,-0.7990986159462149,0.5100630104608166,-0.25815460411563296,0.9550904982614425,12.353205099129964,64.03528153946051
00:02.463,-0.8410421266293029,0.5407395324056828,-0.2163409228489939,11.130293151697723,12.719007261061853,66.66558211523372
00:02.485,-0.88302864474394,0.5054302948522167,-0.213153326557774,23.026676443531098,12.732188408399557,66.49810819137382
00:02.507,-0.9141221391262639,0.5376536328421212,-0.24207721099986557,26.65269761396199,12.527819230694968,59.792076866438485
00:02.529,-0.8903883649611837,0.527462652089138,-0.25041640295065626,20.44865022440687,12.2272230475488,52.2152944952116
00:02.551,-0.8478121473286222,0.5362758025953595,-0.25338706775828423,9.57594163640947,10.786225193961343,48.36022040888503
00:02.573,-0.9333817400735789,0.49888413824187,-0.29679071890974174,2.433423292734244,12.716051375577123,44.2826579889391
00:02.595,-0.8729059956374897,0.4687113415357055,-0.3058798239184279,4.329411367054008,14.519237352613384,37.0801278066904
00:02.617,-0.9367008947278294,0.3824816373210415,-0.3061811727238935,22.28878555525282,11.69471523199132,26.76184092027634
00:02.639,-0.952948228162601,0.43428024926243075,-0.25372420934230144,42.60617798468788,4.063491538539846,16.448719662930436
00:02.661,-0.9639562995963222,0.4888601848763557,-0.2519050870643902,36.835362188135484,-3.310258580985258,6.663868670692301
00:02.683,-0.8682799672283148,0.5753908368097292,-0.24233805834705263,5.1443881586069615,-3.2533397399798405,1.2948988393975578
00:02.705,-0.9012149591624423,0.5142994162099768,-0.21655766101288107,-25.670805158344272,0.9732999440714927,4.286489615293273
00:02.727,-0.8741163664970063,0.3690650941042157,-0.274404591058623,-39.22289173585057,3.7038021313322576,9.224007267654912
00:02.749,-0.8300543899184932,0.24818965712151328,-0.16000579095826487,-32.083440364264874,3.5140721115340736,11.86217571006956
00:02.771,-0.8555156688842697,0.2720100071837358,-0.2037081312287033,-15.605833132512963,1.8700969214847625,12.283696319138427
00:02.793,-0.8769256624492384,0.3098940253049395,-0.16167206207279428,2.13727831207166,-1.7141992559663652,10.860077911154315
00:02.815,-0.8996588839364807,0.4383549811057752,-0.1401318503996844,12.313294945056985,-2.414799377682115,8.107446758534453
00:02.837,-0.8953143057194002,0.4868111956277481,-0.1670898505516573,11.536729915729033,0.19162781124052133,5.084171889069426
00:02.859,-0.9281767232569057,0.5149736143139153,-0.1395423091866904,4.269063359547709,3.7029336580309686,0.34410228186664554
00:02.881,-0.9243942164822638,0.48804606872180784,-0.16513503899530124,-4.010914579399425,1.7928931075124142,-3.7756411510888417
00:02.903,-0.9113897821941909,0.4225789855453372,-0.2153846974604227,-11.020005046406816,0.1364327230998976,-6.149990755850012
