timestamp,accelX,accelY,accelZ,gyroX,gyroY,gyroZ
00:00.000,-0.97,0.41,-0.09,2.529099235476194,-10.759225172701598,-17.026886386603334
00:00.022,-0.9583157894736841,0.5845263157894737,-0.12,8.659984623544348,-23.89978276482025,-36.455834277190036
00:00.044,-0.955578947368421,0.7790526315789474,-0.13557894736842105,-4.332975822667016,-24.007197518819446,-66.13226761765553
00:00.066,-1.0016842105263157,0.8565263157894737,-0.2383157894736842,-10.273260764722197,-18.341011988030502,-112.89700767833001
00:00.088,-1.0378947368421052,0.7732631578947369,-0.21326315789473685,-0.9577069972452078,-9.92876483581232,-141.54321728978334
00:00.109,-1.0221052631578948,0.7978947368421053,-0.18105263157894738,-6.475366146003698,-16.1139308198255,-165.91971929119495
00:00.131,-0.9231578947368421,0.8031578947368421,-0.18336842105263157,-17.70323564665723,-14.525955986449384,-168.46649880026442
00:00.153,-0.8682105263157895,0.7191578947368421,-0.19,-18.797610392970142,-14.257648130777628,-168.02427239830368
00:00.175,-0.8065263157894738,0.7069473684210525,-0.15,-11.425125470970391,-16.989738963307186,-166.50490883156726
00:00.197,-0.7698947368421053,0.7751578947368422,-0.1550526315789474,-5.504003848893631,-19.29698039569069,-167.3809382754513
00:00.219,-0.688421052631579,0.8078947368421053,-0.15105263157894738,-4.756404868896925,-19.404509664352997,-161.83087993973288
00:00.241,-0.6443157894736843,0.7771578947368422,-0.09,13.475715459081052,-16.356930934949467,-156.2139026881622
00:00.263,-0.5828421052631578,0.9047368421052633,-0.13715789473684215,16.319230842706293,-24.093541574806004,-154.66213258350433
00:00.286,-0.43315789473684224,1.004315789473684,-0.14747368421052623,-5.209095271980146,-9.86337696317527,-139.24972353739247
00:00.308,-0.4573684210526317,0.9018947368421054,-0.11452631578947366,-17.601107773718294,-6.251699003281322,-139.35454757341276
00:00.330,-0.3205263157894738,0.871578947368421,-0.14526315789473682,-14.799361542620915,-5.091894495281539,-137.19489165272637
00:00.352,-0.27536842105263165,0.8985263157894735,-0.13463157894736838,-5.1587198380248545,-0.1828799169900858,-126.77987493099369
00:00.374,-0.20410526315789482,0.9724210526315789,-0.16242105263157894,-9.269309348606892,-2.4106481731737683,-120.48341330307701
00:00.396,-0.11968421052631575,0.9597894736842104,-0.16989473684210527,-5.847796104315001,1.1125099521344883,-123.0840087234962
00:00.418,-0.06200000000000015,0.932,-0.16799999999999995,-15.40788301475024,0.08050380816783399,-118.72141017082038
00:00.440,-0.02,0.9042105263157896,-0.17210526315789476,-3.6134906953333026,1.299741426322847,-112.80399974458433
00:00.462,0.04073684210526308,0.9517894736842105,-0.1917894736842105,-12.036974705251662,-3.3992532598209175,-111.89287296721129
00:00.484,0.09568421052631576,0.9258947368421054,-0.18863157894736848,0.9791653256042587,-3.3525312772711575,-108.06164804355812
00:00.506,0.16705263157894734,0.9574736842105263,-0.20873684210526314,1.4242822010313323,-5.826162515156607,-108.33985290701379
00:00.528,0.21,0.949157894736842,-0.19,-4.4601192869550195,-2.213110379305317,-105.90398097176943
00:00.550,0.25421052631578944,0.8805263157894737,-0.19,-0.027540100567800097,-5.100483095014943,-102.9457437230979
00:00.572,0.3087368421052631,0.9337894736842107,-0.19873684210526313,-2.1966672715390736,-3.8222704253571753,-101.93458954528141
00:00.594,0.3257894736842103,0.9342105263157897,-0.18484210526315792,-6.9166962576026725,-4.296475645304561,-100.76982603789499
00:00.616,0.40431578947368385,0.8828421052631581,-0.1890526315789473,-10.924239891893526,-5.471396088835185,-100.8959424562319
00:00.638,0.44,0.8552631578947368,-0.21,-22.27776110138765,-2.2056669262030275,-100.33929874709725
00:00.660,0.4673684210526315,0.7926315789473685,-0.20315789473684212,-21.843889767025797,-3.8585715735637276,-96.3041583158733
00:00.682,0.5122105263157896,0.7485263157894736,-0.18852631578947363,-20.212253558802736,-4.256739057204654,-91.09512907055574
00:00.704,0.5492631578947368,0.73,-0.17926315789473674,-21.388674854723863,-2.6846817620011305,-86.6372997530133
00:00.726,0.5685263157894735,0.7214736842105264,-0.1985263157894736,-20.16933690208461,-2.831031501458451,-82.35016046733872
00:00.748,0.6196842105263157,0.6796842105263158,-0.19484210526315787,-15.87331071434603,-4.02713715766481,-76.31037733833783
00:00.770,0.65,0.7226315789473683,-0.20368421052631583,-29.888467893298785,-1.9782408052623146,-75.79093680270147
00:00.792,0.6210526315789475,0.6068421052631575,-0.249578947368421,-35.3640136382724,-4.616887672692366,-70.92785027447327
00:00.814,0.6987368421052632,0.48463157894736847,-0.21768421052631579,-14.471749096283132,-9.063033982684502,-55.45729664588139
00:00.836,0.7240000000000001,0.6159999999999991,-0.21599999999999986,-19.964622154530556,-4.3276236336711165,-59.21177540030538
00:00.858,0.7013684210526313,0.6267368421052634,-0.22621052631578956,-29.875960097624297,-7.0462017359533995,-51.62513579333518
00:00.880,0.7673684210526315,0.5468421052631581,-0.1868421052631581,-38.09828662297871,-6.446602959898221,-46.30508198308094
00:00.902,0.731578947368421,0.45252631578947367,-0.1990526315789474,-50.09750844036869,-3.515943701532191,-34.553558802089235
00:00.924,0.723578947368421,0.2942105263157896,-0.2,-34.534023857410425,-5.762950421118704,-13.106982200334764
00:00.946,0.7449473684210525,0.25989473684210496,-0.19252631578947377,-3.530985144049091,-1.9560249606185967,11.793990954513173
00:00.968,0.677263157894737,0.39957894736842076,-0.2,20.104961917007316,4.870194107496431,34.38509160134222
00:00.990,0.6863157894736839,0.4968421052631575,-0.18947368421052646,21.571931273918846,1.3518455980388928,57.18876509800257
00:01.012,0.7466315789473684,0.621578947368421,-0.1983157894736842,-13.241165602578624,2.3656439105706917,66.51202076600592
00:01.034,0.7230526315789473,0.57,-0.20694736842105266,-24.50047671804712,6.649522942932942,68.24664797814117
00:01.056,0.7438947368421053,0.5630526315789474,-0.2,-15.207758283957558,5.032117841136998,73.14974546654676
00:01.078,0.6941052631578951,0.49,-0.22336842105263133,-12.909536891574797,9.098533528249229,82.18836175995459
00:01.100,0.6063157894736843,0.5136842105263157,-0.23631578947368426,3.2330930562405396,15.565405583518327,96.72708118441507
00:01.122,0.5541052631578947,0.6349473684210531,-0.19273684210526307,7.781111164174441,15.231022767230858,107.50055867218155
00:01.144,0.469894736842105,0.7751578947368425,-0.26757894736842125,7.651098939410611,17.055241350607325,112.74983285989973
00:01.166,0.44642105263157883,0.8071578947368424,-0.2643157894736847,-3.9828722941987227,18.752921231244823,117.68065724176147
00:01.188,0.38810526315789523,0.7518947368421048,-0.23126315789473653,-11.934387830636627,23.959330389638534,122.49589440533309
00:01.210,0.30894736842105275,0.8478947368421051,-0.2657894736842106,-6.384139562872883,27.02832336104406,124.81138248671041
00:01.232,0.2718947368421054,0.8837894736842108,-0.26,-9.711442713139014,26.676877859952874,130.17647787494207
00:01.254,0.22000000000000058,0.8399999999999992,-0.2579999999999998,-1.2667298756998215,31.70979730373166,131.3181941333375
00:01.276,0.1282105263157895,1.0778947368421052,-0.26642105263157895,9.256801552932359,30.218816390011533,124.89818989153973
00:01.298,0.13957894736842089,1.003368421052633,-0.25,-28.19911222430214,27.190132580021537,125.90372849599797
00:01.320,0.054736842105263736,0.7910526315789473,-0.29631578947368425,-14.113154036806726,37.376440893173026,125.69642024618997
00:01.342,-0.11578947368421069,1.0070526315789479,-0.28242105263157896,27.721635730708297,35.344034652258685,122.30601783115792
00:01.364,-0.08705263157894721,1.2337894736842097,-0.32589473684210557,-6.700276967307646,28.52663321320336,115.96931126084056
00:01.386,-0.11831578947368335,0.962842105263161,-0.3546315789473685,-20.152239089649036,28.636567289791017,115.98124435422677
00:01.408,-0.20631578947368365,0.8655789473684203,-0.27589473684210614,1.0132462000568465,29.67956684141643,114.53476625003584
00:01.430,-0.256842105263158,1.026315789473684,-0.3,14.558959414747921,17.870013178650254,112.48344409871856
00:01.452,-0.25705263157894725,0.9624210526315806,-0.31410526315789444,-5.4976925758466715,16.61665019088784,114.97137707863831
00:01.474,-0.32284210526315765,0.9018947368421051,-0.2933684210526322,-12.10123493990976,19.214071779597475,116.35175520475846
00:01.496,-0.3645263157894736,0.8715789473684213,-0.25905263157894715,-17.801347254930036,20.863999045717286,116.71863933082956
00:01.518,-0.46736842105263177,0.8287368421052631,-0.2987368421052632,-4.089934435156169,24.160418138063505,122.85505711803664
00:01.540,-0.5868421052631583,1.0452631578947367,-0.3047368421052633,-9.728540525574868,13.330079359569291,110.87774109159946
00:01.562,-0.55,0.9294736842105267,-0.29,-18.9856863297644,11.337524221417924,106.08227542589326
00:01.584,-0.631263157894737,0.8321052631578949,-0.32,-12.953715802902165,10.906949088116246,105.84607037151267
00:01.606,-0.66,0.8929473684210525,-0.2897894736842109,7.888747057226941,6.27002134937929,97.64464247292776
00:01.628,-0.6517894736842106,0.8689473684210526,-0.25,0.8398583168988275,3.496934267455575,86.64022453080402
00:01.650,-0.6626315789473686,0.7636842105263157,-0.26421052631578956,-4.07249237146324,4.014884088711811,85.60824593511741
00:01.672,-0.7219999999999996,0.7459999999999998,-0.2740000000000002,8.051692652252852,3.228855441110078,79.71961532234239
00:01.694,-0.7398947368421052,0.7895789473684206,-0.27,9.159722698430917,0.876266202134154,68.53456310386227
00:01.716,-0.75,0.7972631578947372,-0.23378947368421046,-5.09193509414788,1.044144698256542,61.59546929976291
00:01.738,-0.7269473684210527,0.6985263157894738,-0.26305263157894737,-25.819647535244634,3.042883628215918,62.81720747851308
00:01.760,-0.7378947368421047,0.6057894736842114,-0.23,-33.02861311012316,10.906376514800677,66.49774785038701
00:01.782,-0.7964210526315788,0.508105263157895,-0.23547368421052628,-19.130501358583473,12.778462227358055,68.66442323777129
00:01.804,-0.8474736842105264,0.5181052631578947,-0.2681052631578948,0.21114077101980655,10.990086733535678,65.65821963333151
00:01.826,-0.8665263157894735,0.5402105263157897,-0.2734736842105265,8.452745366771612,11.27156377546534,65.20101836908222
00:01.848,-0.9086315789473683,0.4770526315789475,-0.2671578947368421,17.152663136139303,7.499450772551284,63.00252139933472
00:01.870,-0.9289473684210526,0.46105263157894744,-0.2489473684210526,28.49482405414922,2.3017447285541146,58.262158547206205
00:01.892,-0.9150526315789476,0.4650526315789475,-0.24,31.427730014200723,3.2991674442608545,55.92034746571218
00:01.914,-0.91,0.46,-0.21347368421052676,32.54035007713983,8.931914693421032,58.84325339867147
00:01.936,-0.93,0.46547368421052615,-0.19726315789473695,27.235897206943772,9.071279038428592,57.20104916472383
00:01.958,-0.9167368421052633,0.48,-0.19663157894736838,17.413720339438278,7.897389226865977,52.28917734294601
00:01.980,-0.9115789473684207,0.4384210526315793,-0.19,19.51101374809507,10.937868047156547,48.50568479283777
00:02.002,-0.94,0.41,-0.18115789473684227,26.54406693059678,10.45072267027748,46.682027344752235
00:02.024,-0.9566315789473684,0.44326315789473675,-0.17831578947368418,29.70509672368493,6.860802496374848,37.01809355968295
00:02.046,-0.94,0.45778947368421063,-0.19,30.025135642366628,2.6266228278032617,28.238378596311833
00:02.068,-0.9461052631578947,0.44389473684210534,-0.16557894736842127,23.142176007959463,2.844200687716354,22.97331060852362
00:02.090,-0.95,0.43,-0.14,15.970389568847521,-1.131404871547994,15.737644336442768
