timestamp,accelX,accelY,accelZ,gyroX,gyroY,gyroZ
00:00.000,-1.00834545190029,0.07309614640278592,-0.11426035107734844,-12.621597595692657,8.19405703683958,24.63312476907853
00:00.022,-0.9961445774467853,0.0941207227263527,-0.1112882802979693,-19.403041227397065,12.310338315401745,26.94832155431658
00:00.044,-1.0405367913563839,0.19624150413799862,-0.1093627918638172,-28.893608440498856,14.106285890783532,24.377764051438948
00:00.066,-1.1144214694698724,0.1984893863624027,-0.1329482710431391,-31.183745851846155,10.402652105059316,18.66968200965879
00:00.088,-1.082604051223056,0.05384199665180801,-0.14548171865781082,-22.24667002007644,2.069220814915763,9.986301065067908
00:00.109,-1.110840276030312,0.010978430802062459,-0.19809530219221871,2.4899916218208595,-5.273009942364865,-3.6667185856584887
00:00.131,-1.1259073568404572,0.01683528312082254,-0.22094049782578695,29.903603829197248,-11.788854452928037,-18.626526754854144
00:00.153,-1.128429386682254,0.14451425971882995,-0.21677676329497567,38.92120883217095,-18.70845647501768,-28.466383347112
00:00.175,-1.0663702541287017,0.21163952503239783,-0.26546585533432854,37.57809504081315,-21.703050087617267,-30.577789618767373
00:00.197,-1.0360075598614935,0.2260253212249648,-0.29825869774212704,34.716408790771325,-23.503179280026096,-30.23970833698646
00:00.219,-1.077286389655713,0.12208213850460652,-0.35875350513549115,38.12908409729392,-31.682406036589253,-37.64855278727242
00:00.241,-1.1543077888381938,0.15129400488723607,-0.3917202083207685,61.41780033656759,-42.57222316344318,-54.86802672866031
00:00.263,-1.2112220348990184,0.269804457595985,-0.43730975182429077,89.79144624689927,-51.83895476973783,-76.68116156942862
00:00.286,-1.283526170106843,0.4273887340943436,-0.4088241332540522,102.97055631242534,-66.07740581946373,-100.67980114140863
00:00.308,-1.208244217253685,0.4860217083334177,-0.32234661804457404,100.38658665280798,-78.10935506774004,-117.36921213091911
00:00.330,-1.1778790569006214,0.5448439137271492,-0.30362830730217566,82.19461556911355,-82.10813972011472,-123.8902947568941
00:00.352,-1.1609109380122478,0.5102634473457309,-0.3975165890399443,86.02601874696171,-88.97250495589877,-136.297135326263
00:00.374,-1.1870843105879,0.608566536997999,-0.45883090918635994,101.74885310792548,-89.98361960266028,-164.93841943493044
00:00.396,-1.2048147030916356,0.7958774606976906,-0.3743490281845787,97.1388654018638,-95.13274415791206,-189.31233846093627
00:00.418,-1.0925515271326094,0.9903815810897209,-0.38079630922842533,75.39045469095177,-100.76450729569588,-199.90874267149675
00:00.440,-0.9435496860048008,1.0255072464814463,-0.40542850832216465,52.50343428587012,-91.93296128354574,-199.383332148136
00:00.462,-0.9861619118002793,1.0163007601090224,-0.4001709554625583,43.42673816371811,-79.18951149386479,-195.80753656548544
00:00.484,-1.0045773175186536,0.9329775083247985,-0.38804271702033805,48.447987878297226,-80.27911539368574,-201.80513061944893
00:00.506,-0.9609463215938784,0.9109558041162407,-0.37287363266786605,66.43326451693603,-84.5332294064466,-215.66917135118936
00:00.528,-0.88370204213115,0.9682953094244233,-0.2957508275633319,90.23683218710124,-82.44085223966161,-229.82963257302777
00:00.550,-0.7814744538661614,1.0747860516668073,-0.20129008780324284,105.30088862857097,-78.99720227038313,-242.1261681495836
00:00.572,-0.6613293375711923,1.2045714842947692,-0.1732732101088179,112.9379748342519,-70.1861358535824,-248.24682642326502
00:00.594,-0.5105695970128742,1.2618393844140645,-0.13094353957234758,106.41764168566579,-53.61053430911715,-247.96027192659608
00:00.616,-0.5037158816944225,1.306093720520627,-0.08689799955732092,74.0975592635587,-40.42070149904141,-246.07508915492878
00:00.638,-0.3234942101768539,1.2531485721910072,-0.11799866730218483,42.11293446136018,-31.438001622160023,-235.798332532763
00:00.660,-0.1597934450491126,1.0421851155185171,-0.0866030642947156,27.70296366435436,-24.302339015148252,-217.7267271426448
00:00.682,-0.01905768925947855,1.01535638209318,-0.1275859473188608,15.784294610369772,-16.712687882772755,-206.63306711408234
00:00.704,0.06487122505338182,1.0749043498475324,-0.11507877056456785,6.910305471917232,0.04202633272205335,-200.61772050063877
00:00.726,0.04562307542347535,1.0905738163855918,-0.0854717527726921,4.199178196735647,12.051984729517175,-189.03479522163454
00:00.748,0.0942151293033024,1.0621220008588694,-0.08052343687101166,4.122000063980932,7.008885127552367,-174.13626406185682
00:00.770,0.14681745383951814,1.0348681486688123,-0.07236576354615812,-2.5705929264983363,-1.540703599955307,-170.3553766710755
00:00.792,0.21031637751661653,1.076288136010348,-0.1336817571801535,-16.335087635758907,5.222891255575714,-171.41340299634558
00:00.814,0.2167666214773352,1.0423812290127101,-0.19311855087345414,-24.966828600231867,16.34688786822992,-161.78902428191196
00:00.836,0.1694153549466582,0.9212901776408907,-0.203451968085764,-21.246294134312144,12.353822093088478,-148.03461584249553
00:00.858,0.16212824414918098,0.7896300068806966,-0.16740475362491003,-8.794927284812522,1.4386780778546826,-148.1197361193684
00:00.880,0.23704091076132833,0.7519199638827085,-0.16358382836070154,0.6115362418932159,-9.004956464674779,-156.99723653895134
00:00.902,0.3658246675058595,0.7322945779168962,-0.15092291910995387,4.983835284963324,-16.423323548323378,-155.1146665281834
00:00.924,0.44669034173223265,0.6874990221264615,-0.11949430066994793,11.107308407256847,-17.676575351396497,-140.02346709991727
00:00.946,0.558619948514595,0.5635035648868117,-0.10184979338139502,14.664270087845418,-14.447842545057552,-125.21280264376023
00:00.968,0.6489729517414385,0.5733197673412274,-0.07905006327602904,10.485003081605745,-9.106141154073354,-116.64951800042856
00:00.990,0.6228216211655208,0.5031599378274618,-0.11181045650123034,2.90794752072668,6.229434552211846,-99.41760305529459
00:01.012,0.5358524518036935,0.3503301841580693,-0.06149210474242148,4.775974012639199,0.7132875738502599,-65.65694368761189
00:01.034,0.4967832656835613,0.2650265348187336,-0.050049264544253264,8.58261150316426,-21.09010124150573,-27.07759967473064
00:01.056,0.5531358712370883,0.10492591324020747,-0.09554855307522209,8.26738783995282,-29.439249020330006,-4.683760681140931
00:01.078,0.5909509463087136,-0.16354616774705266,-0.11017604535436619,39.87177320804853,-28.39759593186827,16.46164372294612
00:01.100,0.4716016671689301,-0.32336136890836087,-0.08860409269032926,73.51325200995186,-43.36197059950854,121.18390202304847
00:01.122,0.6113725838999339,0.05106661910708563,0.04670744069950311,42.06192036705695,-23.877648485322403,72.76727607395033
00:01.144,0.3533686524963075,-0.4814566926065054,0.0014023857178611136,115.07233934657009,20.50551849070707,-39.60688333820535
00:01.166,0.6913086799583795,0.048461939834542916,0.06680873775005385,114.62013092514789,20.437923852551883,-4.955920969475669
00:01.188,0.38946057429552583,0.31691839784128223,0.146600161638039,73.59299598472113,37.77925064793394,-40.91582038036721
00:01.210,0.2970471926398362,0.4266188302727919,0.03499873778502673,-20.182777421893498,13.69249374191625,-69.08175884256674
00:01.232,0.3989989219802284,0.3708467633743656,0.0601976608500751,-97.08922017594105,-14.327425292873247,-33.79304241283494
00:01.254,0.5214007437714121,0.19286095380834584,0.052943291674915585,-139.41654104662044,-19.52134249697498,28.84637162316773
00:01.276,0.6210603827913365,-0.005294585119634128,0.006142698736095703,-126.94578633114108,-6.506840802531092,77.15664132376071
00:01.298,0.6039433012242842,-0.03448027444925384,-0.013377356579583118,-66.34801241825902,29.889014256193196,105.01159179394914
00:01.320,0.5006199816973523,0.06695374590623918,-0.04537518506578097,-5.092779170672521,44.705308357770384,129.5832620529286
00:01.342,0.4015079734602453,0.33736408266234913,0.0034052875698817892,29.527504474426454,53.65819101324629,152.5252993962394
00:01.364,0.3158510066535969,0.6453631001652703,0.0010453427872221311,34.10988531273292,70.52300183641012,161.44450546718417
00:01.386,0.20227172602281623,0.8750051778924377,0.09466313748924904,14.983998803269518,65.7202839852316,155.1461756320837
00:01.408,0.23102099879586996,0.9326119003718694,0.07249831240885163,-15.297737285115714,56.05125152368112,158.00726708723496
00:01.430,0.16876596819124426,0.9598819425420136,-0.0363222124749374,-35.20741352986725,63.21463178023701,182.16935795928512
00:01.452,0.09619645361237199,0.9437932015189195,-0.06525920523378094,-41.584204921189645,87.30664719915696,201.31445076220177
00:01.474,-0.010148951680520461,0.8098038887750364,0.009846182794369635,-37.77904832906216,90.93808361861201,205.7822204010979
00:01.496,-0.075028642714872,0.8377914308597417,-0.1857473945547458,-12.858217902633232,78.85925705449125,203.82015123306408
00:01.518,-0.09692821016201497,1.0322182699244444,-0.19659995258994295,9.398972438335647,84.73169782367209,200.91499935240347
00:01.540,-0.1603329720896467,1.068224987493663,-0.08349393908174298,5.858148560180357,95.21370379390048,203.25105569835003
00:01.562,-0.31532248533483376,1.0467913534216158,-0.15223219277126251,5.339208327816946,79.2285550812244,213.19145616434815
00:01.584,-0.34096823845636337,1.1006965151125283,-0.17789713215851077,7.317573487183546,67.91418314024129,216.20305459408988
00:01.606,-0.3731741496085687,1.2043161483795723,-0.2455740132852486,-5.857993228945704,68.61956671245883,214.11836476344067
00:01.628,-0.45120711891783594,1.3004413547374085,-0.362572744307217,-25.948329528716158,77.82509289972771,218.49203197269966
00:01.650,-0.5018357037454354,1.2458550649069926,-0.308579547508387,-54.60055109160556,94.43267143807961,222.87456259435592
00:01.672,-0.6654206924772124,1.1290156106103773,-0.21454163953775954,-76.30531540491027,99.41795041126736,228.370085793416
00:01.694,-0.9295856067259319,1.1003116634596841,-0.36459268665973255,-72.3392237208822,83.44217164316161,234.9068174070291
00:01.716,-1.055330481717031,1.1835413158948394,-0.43125250838998175,-68.36307221845858,70.77428199038883,211.21158091894986
00:01.738,-0.9408887007209166,1.129127711509346,-0.40810127555593645,-78.61560031251032,67.52193901080035,179.2312284318569
00:01.760,-0.9926048273559774,1.0300367946506805,-0.38122776490932836,-80.93260317808883,66.47464695211384,181.72640475544688
00:01.782,-1.0461757732353019,0.921220266851395,-0.37118589263863044,-73.13570841238445,75.54463389159037,184.32586546690655
00:01.804,-1.1348682032243331,0.8273203332134668,-0.3780983668420416,-72.9388578037832,78.85292974264829,169.23576024926837
00:01.826,-1.1880158958254088,0.8344973179241234,-0.3556370722884903,-81.80631153306342,65.16932271454542,159.44298977410867
00:01.848,-1.1726659004321713,0.814334952291862,-0.3329126014945246,-96.18269923426587,53.80221888153364,149.30992540242585
00:01.870,-1.1241670310719019,0.7460568244900843,-0.3056459131365641,-116.45487583300923,50.10700800574796,141.08385743232327
00:01.892,-1.177323218272944,0.48260789575886126,-0.3309432177244979,-111.10237679121715,43.47083054105136,146.07357266146025
00:01.914,-1.2602694374700314,0.05687603916538678,-0.40233259481488604,-43.541263684810204,18.37295093440375,157.75714154636378
00:01.936,-1.3213872430142921,-0.09839360597750338,-0.5432084079151135,21.24549762362469,5.209216178883494,143.13037122906877
00:01.958,-1.2139733636788426,0.371583105415503,-0.43954656957439603,-3.492416888779745,43.83724387310732,85.17377501597144
00:01.980,-1.1338702879874014,0.7295844422017301,-0.20566371209155648,-36.170462288461415,79.22531834429103,59.41074757448202
00:02.002,-1.1791328021549095,0.6108201802857772,-0.21460025511234643,-44.01303744677224,82.2504262103982,102.88553744616476
00:02.024,-1.3569679312301812,0.2091536069105972,-0.21750705395455447,-48.44131571480466,51.50105813214511,120.47081380882727
00:02.046,-1.3576879121580077,0.030758709863985458,-0.23607871051445936,-61.699559948612304,29.033881429506582,74.29656735274466
00:02.068,-1.2197705253857125,0.034270345535199434,-0.294854031431483,-50.92819070519963,10.060418453379095,46.898357029656005
00:02.090,-1.0800877968617986,0.05327575637145425,-0.3632034420895245,-19.583528612924162,3.573115665779777,47.94963219164585
00:02.112,-1.0380121273599392,0.11302226777684153,-0.4056566109604767,6.2045568744042585,18.973163132764412,45.13571761443013
00:02.133,-1.0574521472643146,0.2253350040116772,-0.38672045204863875,17.60171289269694,29.61721937138324,35.91227425129174
00:02.155,-1.0678090054228457,0.3125879965072133,-0.30422592243097285,8.694079458309018,20.46255967230041,27.247048628328745
00:02.177,-1.0206550476481688,0.3216001849373996,-0.2920214565211537,5.681814441597296,9.821713102840757,21.64088980139361
00:02.199,-0.9147756976362038,0.28627691301067976,-0.2894247317082613,8.68450705856828,8.363888593238174,12.335430943285322
00:02.221,-0.856133802090536,0.25477675122252463,-0.2719241998228774,14.623787466531187,8.732626420631174,3.300290532957129
00:02.243,-0.7534686728573303,0.2558697213736816,-0.32481694514134407,23.47919173653756,8.44236767159397,-0.49142324903178775
00:02.265,-0.7793706779531676,0.23461306437732793,-0.24841829060543374,30.867781485114037,6.365715739115551,-1.9643836553711025
00:02.287,-0.810916860136352,0.2840694122553307,-0.24164343333515806,39.114558546127704,2.612180297316908,-6.4821308002759315
00:02.309,-0.8047798094298345,0.34411105455716395,-0.22551106817429584,39.03611509409519,-4.918285118945508,-13.339800199430977
