timestamp,accelX,accelY,accelZ,gyroX,gyroY,gyroZ
00:00.000,-0.9050803315552538,0.02993209040435029,-0.06172553617144179,-12.916965708468165,8.217326574536575,24.631730717493685
00:00.022,-0.933567800425286,0.0791662539821736,-0.10488344973261526,-19.558215548895088,12.062509689865024,26.895476096750702
00:00.044,-0.9516294504494919,0.16435055049208855,-0.1335434901400868,-28.679829876431768,13.802070494850845,24.690274375572365
00:00.066,-1.006131468083077,0.1886000614586498,-0.1040337527665147,-31.680849081164705,10.895332751553646,19.50282892320123
00:00.088,-1.0141432068885414,0.09041367511119587,-0.17079042509263595,-24.52879992858316,3.6275991296043344,11.603767614055831
00:00.109,-1.0676514714587477,0.013525499735717938,-0.21819222918276884,-3.49187102425307,-3.575079500994392,-0.4220356749143442
00:00.131,-1.0509930561857166,0.03474806569252916,-0.2184648290164578,22.91897672436309,-9.959733761846548,-14.512491897750223
00:00.153,-1.0264101727854102,0.09931827905808102,-0.20498582990282696,37.71256857813,-16.383692258242892,-25.603893776848537
00:00.175,-1.0034342810923462,0.24448905975887128,-0.3039081595308843,39.42573871383007,-20.711270612230972,-30.282132881364987
00:00.197,-0.9726705388816613,0.23459810814495144,-0.3214311013757254,36.7166641852965,-22.680388062310794,-30.565461771022573
00:00.219,-0.9824801289017788,0.19522402304225914,-0.3529764342552564,36.86901518766478,-27.238215146461815,-33.55578663667063
00:00.241,-1.032700207111514,0.10100388811349788,-0.40428952320147704,48.63527783176443,-36.776780810644375,-45.37125508641121
00:00.263,-1.079383661266743,0.16638044736356977,-0.472811242114654,75.9792280553785,-46.7983338082478,-64.55472679230462
00:00.286,-1.1299256654666696,0.3274566253403984,-0.424639898615778,100.27691555815491,-56.34177326406493,-86.4326848294328
00:00.308,-1.1395126924926173,0.48351635531430115,-0.35670310876040723,106.86127060752652,-70.91036015582414,-108.66937265308027
00:00.330,-1.0890989733284517,0.5080830261135425,-0.3795817171059114,100.02113090512421,-80.60904119982858,-121.58634053802761
00:00.352,-1.0482254205257546,0.5638519981352278,-0.322410119862167,77.76131412656594,-82.02111960378406,-125.13394959786748
00:00.374,-1.1108451258074934,0.5161617713973344,-0.4106494063927402,91.54059994908077,-90.53817028375968,-140.25394737571503
00:00.396,-1.146360508072451,0.6108527425432568,-0.39905501287407535,107.13379944034313,-88.97513276605085,-171.50130746630745
00:00.418,-1.1360052919228818,0.8003042190004998,-0.38514874162176665,97.38265269417887,-95.79009877478249,-192.39065942454062
00:00.440,-1.0114233363141325,1.026492823856871,-0.3641698940536874,74.86857480367372,-100.47286517892951,-200.85602324829773
00:00.462,-0.9332298798066989,1.035982809142243,-0.440214450640186,52.77963910196179,-90.68549752952913,-199.56057402735073
00:00.484,-0.8932023285037816,0.9719611207554819,-0.4236170742803789,44.447224690717746,-78.72868165066203,-196.22092671340715
00:00.506,-0.9247917392194395,0.9572390335736894,-0.3839114307292194,49.15874723985487,-79.41198032970377,-201.6843921626654
00:00.528,-0.9209052232443187,0.9206323944276371,-0.3398787073171144,65.7642026758508,-84.03187921911446,-214.74601905559652
00:00.550,-0.8007820302906744,0.9291219532933367,-0.3468733340544435,89.11058135029488,-82.48079089167226,-228.468880777766
00:00.572,-0.7403117180515835,1.0574388865997446,-0.26263385768758074,106.33339552755594,-79.03678685686647,-240.56300358387435
00:00.594,-0.6560738839606101,1.1521283386322811,-0.14500994133235923,113.85049910007294,-73.05966363326131,-248.4858061848057
00:00.616,-0.5335083955450431,1.2660286978248623,-0.13287795818522694,114.71738997279776,-58.32592126516947,-249.00445487254157
00:00.638,-0.4448798668438635,1.286320089525493,-0.1174836461978641,90.63043870472347,-42.47710774820656,-247.17052861497496
00:00.660,-0.40509602697021685,1.3419758963113697,-0.057722438172582186,49.115894559525266,-35.23845914885408,-243.610604147401
00:00.682,-0.25089398247267697,1.1012288432273756,-0.11372927681363544,33.506931710337454,-25.093408662922368,-224.4984754725883
00:00.704,-0.10095810772717054,0.9808342268214688,-0.15734723854978144,21.39473177198117,-22.92801889771097,-209.79868702989083
00:00.726,0.021758700732529238,1.0091635599830477,-0.1359518638341596,10.45894894551699,-9.145176711306549,-204.41994053779325
00:00.748,0.05232445881110234,1.0752003287047975,-0.09049031474351124,4.657207034027397,8.803592867019521,-197.72069391380236
00:00.770,0.04765063036196493,1.1075770872672337,-0.07154171123308103,4.885784646388757,11.944522956392214,-181.75555624387317
00:00.792,0.12685214229320618,1.000361044189999,-0.06951300245455523,3.1911385375051085,1.8745755154981807,-171.59189442613217
00:00.814,0.1510532680031956,1.0257754149164027,-0.11249135745096858,-7.3550655786104056,-0.772326308379623,-172.13863370981835
00:00.836,0.18560064912576027,1.1128160075339275,-0.15949242488431,-20.194517542464713,9.71742606654698,-170.14192905812908
00:00.858,0.15638892079558225,1.0189913006006157,-0.15455115491198318,-25.522922619023838,15.94746895884275,-158.13262577491778
00:00.880,0.13145993521751148,0.8915367946162286,-0.15286082124102868,-19.297478303576316,10.282170501669242,-147.69076170994336
00:00.902,0.11212719849990795,0.7549790835564784,-0.2069340423355403,-7.409795420734045,-0.07230370747956835,-149.98270642785633
00:00.924,0.19031880940403037,0.7566500602435688,-0.13181652293114768,0.9906860183400671,-9.74321108735223,-157.5115056033264
00:00.946,0.32298340957592975,0.7301513831081169,-0.16919926474512303,5.421330279267116,-16.432909980075827,-154.7492981808929
00:00.968,0.4193452739025591,0.673731644176744,-0.1071858429764679,11.41982939100618,-17.54336007851977,-140.32146460341207
00:00.990,0.5079536222172047,0.5875407075733361,-0.0961716607727549,15.142736422366083,-14.489176879172177,-125.85442264934983
00:01.012,0.628501148531702,0.5421985483722793,-0.06991358104722131,11.616526089940118,-10.713859536030926,-118.22152203529917
00:01.034,0.5904222472041827,0.5464250799548056,-0.12387309363910277,2.692964181858875,6.563743500272007,-104.09279067542039
00:01.056,0.5019692429724791,0.41410762260196377,-0.09854844158706683,4.151986229871188,3.792696734387348,-72.74304443284295
00:01.078,0.41350846411988323,0.24831317858368096,-0.07287686989171803,8.571951851412802,-17.193028812958858,-34.524485135004475
00:01.100,0.5135646178571117,0.16275019377779043,-0.06844041726158036,6.32880758479215,-27.76362844312059,-10.249284931572497
00:01.122,0.5538066156864422,-0.08202009481245123,-0.11340734329270272,30.25023047425108,-27.69918482508682,5.191860241592846
00:01.144,0.46082259023543,-0.26455654320314087,-0.07697161223647128,65.01149673797687,-38.748041652758126,88.20852229598957
00:01.166,0.5361315390205802,-0.07789350752966272,0.019532626730172996,54.383034557094234,-32.14612548314054,93.95684398704502
00:01.188,0.4508926042923645,-0.2574598999577806,0.035797993833408606,84.2449076115954,0.48893299495320347,10.718337279742146
00:01.210,0.5071126674588755,-0.18540268594177858,0.058067368021952365,117.54479805111171,20.308830882811353,-22.340379399003837
00:01.232,0.5469249000128272,0.17211456281088763,0.09266360691176284,98.41959028657631,28.09315650481065,-20.976390239528378
00:01.254,0.327789487994291,0.30415171389138046,0.12969728356069826,36.99658323784905,28.458825771762143,-52.68409184632737
00:01.276,0.31904539471520615,0.377067007982694,0.08878213542197833,-49.893543460528164,3.5518780408246093,-58.45519032369424
00:01.298,0.38659346863063443,0.31250522311457063,0.04108776166086685,-114.88224242215233,-17.028314568679168,-15.076091082879527
00:01.320,0.5208170889248717,0.11953851876418302,0.03701090193915206,-142.9545260422014,-17.057038132505884,43.25837015196884
00:01.342,0.620317397936989,-0.053682937828034835,-0.04150160449200949,-119.90516138254758,-0.19214887249245974,85.37727000368655
00:01.364,0.5302527914472339,-0.06349282770687144,0.017473900413343933,-55.94054472541558,35.25062591784137,109.87200976825196
00:01.386,0.41299000563942007,0.06601449825468092,-0.048098766762913116,3.263090735303372,46.01775902088061,133.19221470169836
00:01.408,0.4131458999229877,0.41863164690649085,0.02374944788002192,33.10581733299548,54.089595770272794,154.9499340539102
00:01.430,0.28259747652690864,0.632882985993997,0.04862479327021035,34.90884597872548,70.96424447255566,162.0454879385679
00:01.452,0.21947275340878222,0.8364644814356963,0.0594291214008684,15.33156047593637,65.42157217936594,155.44134098691976
00:01.474,0.24732794613450737,0.9261699147965564,0.1383380699954517,-14.188917709797636,56.128747339591776,158.07605054466373
00:01.496,0.19331100097385312,0.9360924384452073,-0.005149184450693431,-34.54866099968246,61.700766397497325,179.85662910684044
00:01.518,0.09412493515843308,0.9533289486872978,-0.008683679329911468,-42.17335707695684,82.97406613572973,199.61333373586015
00:01.540,-0.002372264332125713,0.8489589603685788,0.028974674601926646,-39.845444367650046,91.36201194787085,206.14200998109138
00:01.562,-0.06271727392252124,0.8378168835669458,-0.12593300861470985,-20.62333095574562,81.74367993702546,204.9049886213339
00:01.584,-0.09868733135727974,0.9864203974683589,-0.2243221697584933,4.60590246315529,80.24594039659313,202.10376527813776
00:01.606,-0.14089131915059877,1.115266170397869,-0.10259105798866704,10.42602248444217,91.99714718759137,202.12085346103356
00:01.628,-0.2482312369765038,1.1152817388656726,-0.07883851999232114,3.100485224704794,89.13289690603622,209.03877909010362
00:01.650,-0.3226154572502387,1.0754029080782117,-0.20084883027458147,7.644289633535638,68.17943312063821,217.6607821857387
00:01.672,-0.2986487104226569,1.131302168383396,-0.17961843884391884,3.7260005520056487,67.21014350884957,215.43264684213614
00:01.694,-0.40631505994121053,1.2396905886115142,-0.3025156624314561,-16.489509809733466,70.39665984364221,214.7126959233984
00:01.716,-0.42921917966842627,1.32131949204845,-0.45529985254864297,-36.36162680803429,83.83736814506112,222.5343680601572
00:01.738,-0.4770759607816805,1.208264759031099,-0.25340488802330674,-70.52209224482897,101.48111677221041,223.9536185591921
00:01.760,-0.7006018736563039,1.0341347433007326,-0.18332606990439582,-82.38624256368237,96.80596920682795,231.9904815286029
00:01.782,-0.8644184352555113,1.1316411585078245,-0.4316109082173314,-68.50149732375623,75.15183107422719,236.9467599611882
00:01.804,-0.9376327287970109,1.2350265039287156,-0.4655678788581834,-72.15926853745255,69.87416994067235,198.05608552724962
00:01.826,-0.9130802190828851,1.168090351993875,-0.39641100094900794,-83.42592789884065,66.05190007163014,176.29017121425792
00:01.848,-0.8995194361629734,1.021553530869062,-0.3917580816914711,-81.27490327597904,66.59168552476115,185.92289477983397
00:01.870,-0.969865159881362,0.885572058784311,-0.38692825682800647,-73.92168105458573,77.31312540394637,182.19048398862017
00:01.892,-1.0592012558189248,0.8539015715795023,-0.37844545618871506,-75.41346564720214,77.26951441045448,168.59171154988354
00:01.914,-1.0888632190823269,0.860699332004092,-0.34671054468774476,-84.22228322799019,64.16089720592774,159.4573450548531
00:01.936,-1.1490464721993803,0.8210638722190056,-0.4073377189255795,-98.46653036850843,53.46839997230025,149.57733470687887
00:01.958,-1.0510214907455409,0.7862179162649249,-0.3442246072792808,-118.31876011155478,49.79176172847765,141.43310659233316
00:01.980,-1.070371536534129,0.5486661135176408,-0.3466409390868693,-118.13686928379198,44.866628953403406,145.08091253683918
00:02.002,-1.1683922871272212,0.09437623298198398,-0.41220214792864596,-59.22417124359746,23.413754496135496,157.07500452924276
00:02.024,-1.197224987528201,-0.18779646441674475,-0.5961354360222738,24.922602245166892,-1.4727472067087921,154.26835067732077
00:02.046,-1.167294447516675,0.20480973713734388,-0.5044693394898493,6.112105959908919,33.824732190646365,97.80060322311776
00:02.068,-1.050190261624848,0.779228063171534,-0.21321196497452458,-33.96048513187491,74.29853337737674,47.30853479141899
00:02.090,-1.0305850771020644,0.7832106175569407,-0.17190320616566712,-44.7239686087872,90.03556753523473,90.06847296776655
00:02.112,-1.2008978120309584,0.3238794013214439,-0.2574529426092236,-44.7630697775288,60.6665536606785,128.77834181234886
00:02.133,-1.2988954662302012,0.08889081729967561,-0.2226828818839566,-60.91886158752331,37.66873112136667,91.37511689475555
00:02.155,-1.1918156963400421,0.05050044193466199,-0.2742464147829236,-60.34716304043467,17.554378145401376,55.1528221844454
00:02.177,-1.0568778466357145,0.07296736082881881,-0.36572121023167786,-35.636184966942196,4.107177708426118,47.85851791840356
00:02.199,-0.9381702528318455,0.03270477923526204,-0.43831345157794654,-7.036683332317911,10.631309172611546,47.40696677376662
00:02.221,-0.9821304557477284,0.1628632226230196,-0.3983719920443486,12.76385224853997,24.65416688760993,41.418363939228016
00:02.243,-0.9608581353595592,0.25104259093309694,-0.3638581788684904,14.401241440817603,26.25979410086733,32.62980420820358
00:02.265,-0.9802711103310467,0.31715857807236936,-0.35292668805667304,7.693220541393747,16.615710459893698,25.680131511790236
00:02.287,-0.911108897880424,0.2902755704964121,-0.26628790157107846,6.583433830650411,9.286285474310189,19.18130702206802
00:02.309,-0.8409822203488808,0.3016694416803432,-0.27674592578013824,10.205864730475705,8.40484418959131,10.209345253808225
00:02.331,-0.7854958482022648,0.2801860584480511,-0.3069299905821501,16.611470554728857,8.648671963106242,2.574766382199826
00:02.353,-0.7030970341194277,0.26744751821691765,-0.34564847276614474,25.067472172190193,8.078626532802378,-0.6935368954456785
00:02.375,-0.7036640318620951,0.2541916117507157,-0.279348804875098,32.35753177468508,6.02773063522139,-2.3938315832081996
00:02.397,-0.7253889743850076,0.2651371754562165,-0.2611451111203815,40.04797094552331,2.2502503728638303,-6.776697571783991
00:02.419,-0.7591810957920757,0.3320853581585653,-0.2051419392345775,39.94980636749845,-4.894234582494834,-13.384410587772301
