timestamp,accelX,accelY,accelZ,gyroX,gyroY,gyroZ
00:00.000,-0.9785500058308763,0.05420506921001582,-0.09372522639691674,-12.516542405063195,8.221606997356806,24.857661765764227
00:00.022,-1.0491953990777552,0.1314127978325122,-0.11296736622256268,-20.38205453382106,12.466700783248584,26.996091103238793
00:00.044,-1.0568908377985826,0.19689594051297618,-0.10984341946111977,-29.518927109554507,13.261646920550644,23.23149927512592
00:00.066,-1.1197847381945027,0.15913148399369703,-0.17666310430453935,-27.944126602964044,7.305360310515085,15.520968890503383
00:00.088,-1.1325878675548,0.029289934113550877,-0.20908228048136054,-10.019873758808533,-1.7766231261425016,3.1698731836163785
00:00.109,-1.1339006160925762,-0.010715696441692488,-0.22608870679821397,19.955000466267926,-9.44658695396692,-13.419007023414132
00:00.131,-1.145191039833017,0.12920150080495083,-0.2484789786226604,37.14381148656559,-16.98851226825398,-26.688564792841717
00:00.153,-1.0850503554574944,0.22539465350060905,-0.2893779152376483,37.52857613307124,-21.353797215950916,-30.841556899713613
00:00.175,-1.041178830171498,0.19685022270738953,-0.353724874869807,34.37691890709132,-23.461680322859973,-30.587306379198
00:00.197,-1.073415715448519,0.12964942384386416,-0.3315495859908771,38.55374719200744,-33.09763866948721,-39.53152398328499
00:00.219,-1.1607337243002982,0.12192568651229314,-0.43794859327129343,69.00289892468055,-45.3869416039474,-61.37203464175735
00:00.241,-1.2121718725250603,0.3093909022691546,-0.41662731986020407,97.28050564537705,-56.56903333919973,-87.45338594059051
00:00.263,-1.2812106411439603,0.4737143675000251,-0.41197551949415034,102.46789084386019,-72.89563070371493,-112.23590086176473
00:00.286,-1.1785392753764221,0.524792317623549,-0.3259200388557492,88.79896987820267,-81.15529339370033,-123.99757796468336
00:00.308,-1.161367563863225,0.4897652339757135,-0.37030852235743966,82.54457783514101,-86.75331554102512,-134.66442347958878
00:00.330,-1.174687737228063,0.5668933367746204,-0.4541554224226018,99.92479393362778,-89.67817708210295,-164.5246656434687
00:00.352,-1.2104819196760388,0.7826683582868328,-0.36282215644436805,95.44408160042396,-95.22004260881617,-192.7002785636501
00:00.374,-1.047847445647603,0.9783988254368564,-0.4046749665317299,69.89600198157784,-100.9250075661171,-203.21635871134245
00:00.396,-0.9531380231208901,1.0126262442426068,-0.3800881779192905,45.28805231044309,-86.30241411997564,-200.1887940286205
00:00.418,-0.9891818634785736,0.915268779082368,-0.40406043158948385,42.95609465931665,-74.93138530562337,-197.19241088162727
00:00.440,-0.9902507156031372,0.8792904998967973,-0.39823172523474004,55.78703307289747,-83.90486701845747,-211.69508014616466
00:00.462,-0.9190012666160469,0.9351764755190649,-0.33905150056882555,82.82062102964245,-83.23020629598513,-228.44262294336443
00:00.484,-0.8115485928507696,0.9922925099648797,-0.2360612330634933,103.23471737594939,-79.03348316264285,-243.01047131919609
00:00.506,-0.6514276602450823,1.15215383564789,-0.1663653356832323,111.79670821219557,-70.24161260766822,-250.9994183709153
00:00.528,-0.5636983519154452,1.1993782569913776,-0.14865312769310385,103.63471996737434,-51.54882861981323,-250.53443925049393
00:00.550,-0.4793758769442274,1.2913223549221886,-0.09486885280991732,63.36182841318281,-38.530572192735,-248.32833280000403
00:00.572,-0.2819163433290006,1.1359449687514331,-0.12685720026300282,36.17655174882199,-27.443894630087282,-231.20835750555963
00:00.594,-0.1466583074425161,0.9557901048085223,-0.18210090326492173,21.53954003696385,-23.07166703779765,-212.65043205742364
00:00.616,0.036233129489075325,1.0004681950704943,-0.16822142532273618,8.969142676967103,-7.380059209436176,-205.65860323050697
00:00.638,0.08165651112999625,1.0730501703721564,-0.12562772796836333,3.8266985663873174,12.048653247805625,-196.02489424996503
00:00.660,0.05139297511431467,1.00774218659666,-0.09296425765371108,4.4053670768092825,8.734686015537669,-177.13124558455812
00:00.682,0.14258222794237205,0.9921965002603358,-0.08699717140224417,-2.523586855842969,-1.5382264196021767,-172.2381491871961
00:00.704,0.1835239778351,1.0505501263257626,-0.0856584286899572,-17.80658302348044,7.361147005968543,-172.55219941067023
00:00.726,0.1792507753597386,0.9881180604561208,-0.1692507634493668,-24.700090068400257,15.910535433729603,-158.9958838882726
00:00.748,0.14909946788481185,0.7869524915984311,-0.16492960543139226,-16.10306950491103,8.06503335492027,-148.21829737099117
00:00.770,0.1924285889675508,0.7654515720340787,-0.17096610524583689,-2.9821091684169643,-4.172803329718608,-155.59896297611198
00:00.792,0.30556860827088855,0.724078071068516,-0.13967315097432126,3.040363089594588,-14.634014041340066,-159.9409572150501
00:00.814,0.44736898562018457,0.6781844362978976,-0.0980930023454912,9.889502007921127,-18.18474555752823,-145.2931519982958
00:00.836,0.5271643859538349,0.5457488949160244,-0.10117428085033896,14.8789745064267,-14.656063917767508,-127.31966418634579
00:00.858,0.6839068259908,0.5381202675722615,-0.1119163654839784,10.13110447794898,-8.490635107960433,-117.46151410976972
00:00.880,0.62318664539622,0.4418875069872571,-0.09772922087414355,3.0438683984355253,5.750530004070772,-95.17882354238903
00:00.902,0.5379570663511347,0.3250514133575167,-0.05439154175448271,6.058973113685444,-6.050177299678935,-54.554315339106154
00:00.924,0.5203698858513977,0.1730328079904844,-0.08997117424246692,7.152432585023327,-24.899805128932005,-17.570801146844158
00:00.946,0.5460957802839109,-0.048035386957724586,-0.08936019893656796,25.205660739225333,-28.040829122689974,3.311731786040574
00:00.968,0.47717060270919376,-0.2408022372536008,-0.10833488495811322,64.52100167939676,-39.465937648513126,93.66129033032864
00:00.990,0.6299870010293046,-0.01428212867685171,0.06706120958342525,45.30467226558495,-28.142746041244504,84.67049735265897
00:01.012,0.36455523585604704,-0.41947388179604117,-0.005703876282551062,110.1735186528583,17.906661583925903,-34.08636055356061
00:01.034,0.6976421413776434,0.09762742437013221,0.0769055854597003,111.46061339829512,21.272714777143843,-6.70855664567393
00:01.056,0.4098928989704975,0.2871301817001978,0.1738193583870974,56.299700172266625,33.953640635306435,-47.10074899465839
00:01.078,0.3483960084480583,0.3523157613453108,0.06074545375545956,-45.30230920763962,4.748427491988599,-60.54406470953763
00:01.100,0.4272486451787406,0.2656927251958759,0.01623780413263581,-116.58993393106662,-17.53082687558966,-6.515042519462453
00:01.122,0.5997432981050904,0.05144898518784598,0.0036247626034472532,-133.2489148904667,-12.553024680807743,58.18583771998215
00:01.144,0.6215818613832363,-0.03960683827140122,0.010688336218954549,-84.761937108477,18.465534986000915,98.66195246484442
00:01.166,0.5267975312088439,0.02906213458197439,-0.031176873914566736,-14.774557401727247,42.69541648084836,127.05426736842966
00:01.188,0.42275391084731656,0.316416473244463,-0.0036553237776919853,28.363901080099254,53.10830963127568,153.48157021176874
00:01.210,0.29664836831891067,0.6880679104996117,0.016579540436247545,33.782926826656166,71.94770058086063,163.84330262744305
00:01.232,0.12513578333189068,0.8463088617651461,0.059995939999317696,9.48553863632405,63.120010880077764,155.08252398816444
00:01.254,0.2389838673207052,0.9066415850395785,0.04427507712758179,-24.438611168367427,55.2267986865822,165.0154675521632
00:01.276,0.1565397676638663,0.9033883833047051,-0.06300925484332069,-39.65622178901319,72.45527841965436,195.24958784348883
00:01.298,0.04606033876561764,0.820567229415719,0.04627674346706313,-39.86771540476896,92.37592171595428,207.91129180775218
00:01.320,-0.07146846176134866,0.7925391657354696,-0.15747319686282268,-20.990189552322924,82.25620133343342,206.82966002372987
00:01.342,-0.10451610284866056,0.9555843592842104,-0.2606544486818364,7.0297273079831735,82.38000783267464,203.5416286916388
00:01.364,-0.21087284160741782,1.0533252285047758,-0.0846519857478909,5.767464522324208,94.68330847533781,205.48562128056867
00:01.386,-0.2976404207043308,1.0157894205298232,-0.14689192667734702,6.109981106545149,75.13603934351603,217.21717808191275
00:01.408,-0.3562806749922187,1.0931245003537564,-0.1647437524229337,7.1209275304962265,67.12166923715816,217.99186508159846
00:01.430,-0.397349980157993,1.1586049136332064,-0.31288645732031867,-13.747341349395233,69.0377608848968,215.79463278654305
00:01.452,-0.47498888133175204,1.2734116145855858,-0.44405477713839786,-37.34710705275949,84.9625861946386,224.6158700463183
00:01.474,-0.5851005532300849,1.123375526879916,-0.21247147121120902,-71.64915684735858,100.83999341143743,227.80128176946266
00:01.496,-0.8407609241385842,1.0389947010087535,-0.3187290850148411,-75.56621032196112,88.58291291372609,236.44047604595232
00:01.518,-0.9769040483389305,1.168794407810661,-0.46233069395748316,-67.04936698138982,70.58072577347268,218.39475807563375
00:01.540,-0.9650444348691825,1.111937874355547,-0.4154590830976636,-78.4189677755831,67.0391491121511,180.73180722793128
00:01.562,-0.9461014066043112,0.9966823366222012,-0.40185639466232564,-78.96730167243484,66.61587758820686,187.1698678185621
00:01.584,-1.0335948561870767,0.8419566563827215,-0.39008528335964393,-70.56434888854511,79.84666773896076,180.97491256137138
00:01.606,-1.1943736721854243,0.7967302591778654,-0.3785653082908673,-75.7581047424201,73.1670752473749,166.42714757700315
00:01.628,-1.210586260371835,0.7887226548295744,-0.4049963959012009,-86.60065230250954,56.59008181974636,156.76724233042358
00:01.650,-1.150738076208484,0.7376676719713582,-0.37615830772289194,-109.37979225204809,49.753765115941874,142.73792607622903
00:01.672,-1.1660336163343434,0.5218958813949489,-0.31348953364377535,-119.34905039658689,46.83016561253274,144.9314611556229
00:01.694,-1.2622344041854427,0.08355855990154566,-0.449376710797675,-49.918475923480614,20.707101777996307,159.01371686157896
00:01.716,-1.2992620536393755,-0.06101651379723143,-0.5478975717865332,20.007563033903686,7.574760536688523,140.86823086225917
00:01.738,-1.20176035381121,0.43472223016667866,-0.4178215623474425,-11.478379674745984,51.91126262847727,75.42998953155971
00:01.760,-1.0836894707920717,0.7542765658212098,-0.23995071699676085,-39.41416161316428,84.16354581407255,74.60266421245856
00:01.782,-1.2638430997407821,0.3668859491719399,-0.2582233589474766,-43.47390624189991,66.82677946833171,122.4284109555142
00:01.804,-1.4086793522114276,0.10694509377127791,-0.23725989371488973,-58.87065031177705,37.96943524226642,92.7356761086484
00:01.826,-1.302750038795481,0.029681083897680236,-0.28402460139059826,-57.707424521836295,14.14722367578912,49.84737069211295
00:01.848,-1.0852049625898397,0.048312875371861325,-0.3834355374230575,-23.89456563970625,1.0520566329831424,48.72531136431272
00:01.870,-0.9774162917206823,0.10242866509558535,-0.4159287618026098,5.613890655726515,18.415403155805354,45.95112626283513
00:01.892,-1.0682067629172798,0.23422854618179367,-0.3434313666290123,16.583424189406646,28.6035876769455,35.362187766346906
00:01.914,-1.0610135771133182,0.2879587772463319,-0.3282014089084013,7.8033693281421685,17.703026974239936,26.37967484287359
00:01.936,-0.9521420282667028,0.2750184427035341,-0.284504178246919,6.625185646189141,9.150864940927898,18.569251082300323
00:01.958,-0.8586211474313117,0.2501414940518769,-0.29869238170171436,11.292643079981925,8.524070971542578,7.793175164781382
00:01.980,-0.8148349381329224,0.23649138756886845,-0.279605622092064,19.983568336810702,8.56027724278992,0.8515908423858718
00:02.002,-0.7439467360599684,0.25714403835211963,-0.31100327613581963,28.682163115660465,6.936985640863395,-1.5038622617795478
00:02.024,-0.7423956377443187,0.2487286325647875,-0.23993317173554968,37.89800080285142,3.157996427156974,-5.9027923851919235
00:02.046,-0.8178545832837696,0.27525143042132166,-0.21603054874603628,38.7292377903109,-4.909166995870471,-13.54333295365635
