timestamp,accelX,accelY,accelZ,gyroX,gyroY,gyroZ
00:00.000,-0.9525183242007265,0.4154067681163338,-0.06973177697060044,2.2732979887141185,-10.09265354317708,-14.60326098933478
00:00.022,-0.9279938665640056,0.50388415257709,-0.11586617757139304,7.325916480797581,-20.192143616689275,-26.097426271147487
00:00.044,-0.8884699366919221,0.6769815350958739,-0.09750231814692255,7.791923495111527,-24.36678735789036,-36.61161395669506
00:00.066,-0.9337998761713455,0.7773922584001097,-0.10948917754967047,-4.296115737594237,-22.46683829529857,-57.382944900463926
00:00.088,-0.9630137378178286,0.8325341579325416,-0.19371382165592296,-9.080087950011299,-19.5399199135104,-85.49016366950511
00:00.109,-0.9676442266073987,0.8240113165947777,-0.22473089268209898,-7.415845092011409,-12.533589071891424,-106.32730281592413
00:00.131,-1.0721844042262798,0.7764844328631917,-0.17668442064705558,-0.26348533687073644,-9.27455341451075,-122.20800104526421
00:00.153,-1.019816548800934,0.7693238658505764,-0.17824733462153391,-1.9570782070226174,-12.626986329102413,-136.45500561470413
00:00.175,-0.9654631857091325,0.7603409148993897,-0.1867229489263587,-9.917673348193473,-15.094907598078093,-144.30599730368445
00:00.197,-0.8919403790175264,0.8117485368808096,-0.19900286883525928,-16.327295338027465,-13.331066894201488,-143.9855742906631
00:00.219,-0.864497024318573,0.735771158084843,-0.17817885602818562,-18.388412636000144,-12.445197587055821,-142.79326820834666
00:00.241,-0.8449263017650764,0.7085446249180473,-0.1427414888778557,-14.111967242482054,-14.57319225475327,-144.0609175961957
00:00.263,-0.7707797229571661,0.7115491275321489,-0.13492162316927248,-9.683288150528371,-16.13682550551778,-143.13645943304522
00:00.286,-0.7592019195522678,0.7963943124037437,-0.1452304779260528,-5.882061175536616,-17.60637722918207,-145.4061160667124
00:00.308,-0.7217925177688422,0.8058015006435773,-0.14495631692515304,-3.5645633842280553,-18.778617501172015,-140.20910173499817
00:00.330,-0.6781748773380775,0.8226336600817677,-0.13308624369626137,-3.834085029992648,-17.96260768557725,-138.17200366154523
00:00.352,-0.6410533242699458,0.7684893499608817,-0.10317408017297437,6.82681298297213,-13.725445474070707,-132.15153974135492
00:00.374,-0.6303549422115855,0.7756822014393204,-0.0713225510295074,23.02097393121809,-19.099535006050285,-137.97589231745482
00:00.396,-0.5203926868045755,0.949424229027436,-0.12846155270841217,11.950740561003595,-23.434935147598953,-130.95842770328736
00:00.418,-0.4414655034961748,0.9535855428051866,-0.12547164622564236,-1.0870582729535516,-12.770507226204913,-121.49784714620827
00:00.440,-0.4695861402333611,0.9658935562865028,-0.11819018299375478,-11.019752106387681,-5.080143421251102,-119.11714225371978
00:00.462,-0.42948871751652706,0.8887512723315312,-0.12263992371402423,-16.604301290602567,-7.0498569208046495,-119.52889603884626
00:00.484,-0.35418414221564715,0.8924647271366899,-0.1342868874366306,-14.631670364938849,-6.022799152747951,-118.20398614066983
00:00.506,-0.28921326597876196,0.8876843053899823,-0.12254974505169218,-8.18760673066355,-1.5414148730327246,-113.06929542278998
00:00.528,-0.2721371307355124,0.8984266818874717,-0.14512485925710372,-4.589501675398088,-0.9602220564923871,-107.73126129791737
00:00.550,-0.18842405667940268,0.9705630279385705,-0.11636009112233764,-6.946236167963574,-2.434911180789954,-104.09040294355104
00:00.572,-0.2045271071385185,0.9561276394532082,-0.17212154950396547,-8.730593032075978,-0.8886937217365303,-102.97508455453433
00:00.594,-0.08848853338900664,0.9068834536216384,-0.13763197789488626,-8.00374807654003,0.5795867564221958,-104.61150182320677
00:00.616,-0.05490693146383374,0.9410265578674348,-0.17238097532904983,-14.637989635337558,-0.26952236224634224,-101.99128526179962
00:00.638,-0.01554464753141161,0.8807882519138192,-0.18181706405626125,-9.404660209806098,1.1151356901802247,-99.99090769151702
00:00.660,-0.013837605667939347,0.8606203220089546,-0.16436572188368448,-2.132702740057729,0.8426620106567626,-95.56950603732167
00:00.682,0.06809753622093381,0.9668872125923625,-0.18033663250205112,-12.034385880905306,-3.3182549617976096,-95.87906518541288
00:00.704,0.1112431648424121,0.9673389644961559,-0.18382437176425973,-4.277952917193792,-2.4099642833969774,-95.69908456212242
00:00.726,0.12604629099188175,0.9060251918665064,-0.16390492416531954,3.6279895631224837,-3.6069521494707204,-90.79336616383198
00:00.748,0.1640334670283161,0.9225333996139202,-0.18036002894103864,1.7136350058561636,-5.2488690736412655,-92.46248066464129
00:00.770,0.1737405977348516,0.9665471151721973,-0.18243918800400916,-3.5693372026265147,-2.842520434564,-91.79336750193916
00:00.792,0.20002026051809035,0.9387082199922043,-0.19818558291301477,-2.9597757941159424,-2.114671088977573,-90.01061661803465
00:00.814,0.2773854220328746,0.868808610261907,-0.2161491064421691,-0.33947094426296565,-4.427122929188684,-88.3550260555398
00:00.836,0.27863660130320445,0.9042853093799768,-0.179748936782546,-0.5566329744558565,-4.600107941308247,-87.54128111384907
00:00.858,0.27217784816094104,0.9374813392654254,-0.18231362895285275,-3.4152246267502018,-3.148851170850567,-87.21980809043647
00:00.880,0.3259433671922652,0.8996074870312738,-0.1924099280217658,-6.054180659381231,-3.8492357064403664,-86.43569853134238
00:00.902,0.35423877089323796,0.9225825306516623,-0.18743022218604802,-8.160992837588639,-5.305095828453312,-85.95709071992911
00:00.924,0.39765452426822395,0.8677412861985405,-0.18769112959868522,-12.910786510853573,-4.072882756152071,-86.48887586736615
00:00.946,0.42110222274542436,0.8694651922857844,-0.20232345958237966,-19.743280844844435,-2.0631645306313646,-86.00377597570086
00:00.968,0.41765953172875586,0.8113838666576902,-0.19244788689519424,-21.18909569759324,-2.8745052651713063,-84.1330872096648
00:00.990,0.4820788473279568,0.7505162479859352,-0.2043735884526705,-18.33601161456544,-4.093467123076322,-81.07153651135575
00:01.012,0.5006900283339628,0.766637414639818,-0.19842564811527724,-18.06011659280305,-4.007724548741934,-78.0829145959963
00:01.034,0.5555607425342787,0.7685644409356094,-0.14783380788604805,-17.909311861886046,-2.482251310962166,-75.08265592229073
00:01.056,0.538284018419673,0.7543048201422813,-0.19243568455631235,-20.301087522673644,-2.530199034326545,-73.34935071047985
00:01.078,0.5780316082093381,0.6947175124600375,-0.1869197552522166,-17.949493419121385,-2.6631770242280624,-70.49915923899157
00:01.100,0.5972328884703002,0.6684938140798221,-0.2170355040707496,-14.821028812515774,-3.75305721709081,-66.24794022287551
00:01.122,0.6048920204348066,0.6882516023008252,-0.16900539916488566,-14.09612783162576,-3.336063676720994,-65.48368408649974
00:01.144,0.6183612430849716,0.7007414623648848,-0.22697836417124587,-27.6686774709923,-1.7252789915411333,-64.93162617072899
00:01.166,0.6248186591405348,0.594512787897997,-0.21837158375577007,-32.71630156858889,-3.0661987218776354,-62.36193625416264
00:01.188,0.6396588791269306,0.5377295444767954,-0.20343932128086523,-21.762224842431635,-6.769534375358087,-54.21360417827889
00:01.210,0.7060144745477969,0.46922536864710185,-0.20056536288328042,-12.823420657504501,-8.486622802560932,-47.316229915599294
00:01.232,0.7131377717019465,0.5764844936544545,-0.2108837994293795,-15.139402798111194,-5.975968073367216,-48.402012183777856
00:01.254,0.6819690424808772,0.6612706874380887,-0.22725789158430426,-21.49998381502195,-4.29586994543883,-49.511154132298564
00:01.276,0.672287811558397,0.6549457466378168,-0.24678204924586117,-27.33452489571291,-6.692804017073362,-43.733794644586595
00:01.298,0.7609007179464482,0.5589110593000911,-0.21720915480751882,-32.650263293434925,-6.717138022883574,-40.03997229784167
00:01.320,0.7671381921701858,0.5081000851241498,-0.17827210813840924,-37.17978762258088,-4.904951965858614,-37.52678524663997
00:01.342,0.6674852977727737,0.4307637019149073,-0.19351934541451327,-44.24645856956711,-3.446861178377347,-27.98132816956052
00:01.364,0.7164063728515855,0.3296611826552846,-0.17780954567438242,-37.388906454628724,-5.323141471538084,-16.301559939460816
00:01.386,0.7114954459353551,0.24820061232464977,-0.18678333623697135,-17.834072891866505,-5.607277362664755,-1.2903788805404164
00:01.408,0.7374688646922797,0.24321818295077677,-0.1709939730045231,0.015478238400950096,-1.0005655672490057,12.537601770119357
00:01.430,0.6654476379039209,0.39315018945713887,-0.21358527631210816,14.655042475948845,4.051328390546259,25.372478573702875
00:01.452,0.6632621595650136,0.44431194977055805,-0.16991330091029316,22.76902176466445,3.1849627939259477,39.34101387336942
00:01.474,0.6824281144742379,0.49354834675988635,-0.18694364631591764,17.3471113823252,0.7125688888608932,51.377449309697774
00:01.496,0.732469672005991,0.6078925006428758,-0.18836331867988626,-4.394703115994601,1.607309305554467,56.38991224557327
00:01.518,0.7092373801226501,0.6329628919361543,-0.21459006530660707,-21.019146105309943,5.283097570597131,57.22017729677528
00:01.540,0.6993426917777656,0.5889421737528173,-0.18629041608581717,-19.032599054215222,5.496165920026167,59.41489926516405
00:01.562,0.7454702188267169,0.559505455681269,-0.22134262938006813,-13.463791374770326,4.494787793708875,62.22336056136167
00:01.584,0.689165134426017,0.5296946007802724,-0.203006411308217,-13.079766556812485,6.251461189338202,65.84586789497291
00:01.606,0.6608081390704088,0.47519723048692347,-0.2537075205705726,-9.563031488329326,10.09142450505596,73.01478383231206
00:01.628,0.6057616320852461,0.5173430197826744,-0.22605662939415594,-0.1722564024291404,14.356784015474519,81.5150112320892
00:01.650,0.5682017763224584,0.5471913214217508,-0.15455001551730974,10.041535156445047,15.06527015842874,87.84194913499388
00:01.672,0.5355494611834306,0.6487372570852676,-0.17683621906184283,6.549620987882849,14.512390231916793,93.40764851954182
00:01.694,0.4857846655647275,0.7452355599006658,-0.28316791588191537,7.688114310913384,16.31615149248634,96.12614202472182
00:01.716,0.45155056520854964,0.8310753492656066,-0.2666262732928745,2.753427602078095,14.647312731844622,98.57981416358652
00:01.738,0.4015943743357703,0.7755225143434255,-0.20168195659008759,-6.757543968850976,19.11456411436843,101.98409682499282
00:01.760,0.374201645506802,0.7822295732630369,-0.2289144509471981,-10.379399335492513,22.051942715512457,104.65898509126937
00:01.782,0.3397504555018688,0.8029811334087903,-0.25138231258098764,-8.133562740751255,25.45856131407826,106.04918609411187
00:01.804,0.285015343477753,0.8999982035203402,-0.22090054839077072,-4.131180388140672,24.806676891318443,107.42367415129958
00:01.826,0.2784956254648761,0.8822268764696356,-0.2455305206168189,-7.934318700197996,24.946180119685195,111.04534153963054
00:01.848,0.24793215262160345,0.8331403851096428,-0.22337997542036425,-6.395635696484542,28.066567930317273,112.97649642538262
00:01.870,0.15678087927530615,0.8610887513291877,-0.24158726454619348,5.010993251800272,29.948794458424448,111.06127826192534
00:01.892,0.11141758423239354,1.0513859961350094,-0.2387363504340621,8.745001894234477,28.627040492704023,107.36229797186652
00:01.914,0.12487840871433055,1.0822578801920797,-0.2640186467419269,-8.405495686390372,26.384888076402596,106.50302445821056
00:01.936,0.14780043132313092,0.8969857304603498,-0.24676309422906445,-25.370347231181434,28.34479115948145,108.08062221955572
00:01.958,0.03704113304076615,0.754839695279542,-0.26127576069217145,-14.220410885325675,34.812363397612415,107.78132663835113
00:01.980,-0.059646063680058946,0.8638982988475883,-0.2539994467170244,13.592590082834578,36.82362457889373,105.9808500613537
00:02.002,-0.140825230755974,1.1085084119751958,-0.27523780728024816,24.078281252344357,30.5639784068761,103.36346382907728
00:02.024,-0.06254923210385847,1.2255733622320384,-0.3346552040128379,-5.374089755142118,26.768486472214118,99.4167491874978
00:02.046,-0.0729489104767511,1.1209536373120637,-0.3307536877038341,-30.631995677516855,26.66924182004737,96.5516513643098
00:02.068,-0.1798613532539257,0.7915829497836846,-0.308394536081865,-5.586947266463567,27.12076795518724,102.10665482602833
00:02.090,-0.20619017285943314,0.8594175590947203,-0.2502850036620727,0.9730577807931726,27.83708431328738,98.09774954261916
00:02.112,-0.24775644045552517,0.9958718575414295,-0.3090819131508007,15.644542510000433,18.344499153939875,94.92617702933649
00:02.133,-0.2585836403176448,1.0643087486793703,-0.3180111511421731,5.5622688079681275,16.490836538141906,99.29302422773551
00:02.155,-0.2613309538778665,0.947299852458855,-0.3101745952464755,-5.35024326020605,15.576238071610707,98.39286530887898
00:02.177,-0.29902155323195173,0.9297468150214764,-0.2992950113514373,-9.353610133614472,17.013080304145056,99.10717211828434
00:02.199,-0.3176618577147948,0.8908951408734601,-0.27591665331275095,-15.342791020990248,19.190557243331828,99.40110771855812
00:02.221,-0.38479571170454496,0.8283422877486257,-0.23552266177327752,-15.45312031852697,19.51605786371382,100.09724598077342
00:02.243,-0.4110367858131272,0.8515827355140976,-0.2709667445243761,-7.716509990788156,21.130239497975328,103.34239103317557
00:02.265,-0.5154775739719748,0.9051808144525683,-0.251431064931493,-3.9262033624182298,19.169172321486197,101.97689548810213
00:02.287,-0.5770475962361641,1.0591260841900771,-0.2888364631125182,-9.620861538141405,12.08608028487718,94.3704222664592
00:02.309,-0.5384229375011005,1.0064133646128843,-0.33127978804954533,-16.35170042192856,9.760354460298583,90.49270796970052
00:02.331,-0.5382819706502614,0.8265490464704031,-0.2628665335758983,-16.305870026158697,11.305479711507662,91.17100468729308
00:02.353,-0.6064093707448373,0.8649176443383086,-0.31170742218235925,-9.12217744576094,9.773356883478161,90.21087670261323
00:02.375,-0.6459554639518229,0.9061793323678777,-0.28433220647787677,6.65786523106966,6.298876566830531,86.2566385716993
00:02.397,-0.6453554260743586,0.9260464689886763,-0.21342364415436388,7.354104507949968,5.077836409373731,78.83759936086184
00:02.419,-0.6439814622479828,0.833177999740247,-0.23393681077105405,-0.5974251328537998,2.934995130841674,73.32401192892242
00:02.441,-0.6406834471604731,0.7502488595744568,-0.2097879579479187,-4.268980290531529,3.5898579824664605,73.82604608904815
00:02.463,-0.6877213164084802,0.7384172111914071,-0.24267598896877557,-0.7596463480590113,4.027422864966913,71.70574559376459
00:02.485,-0.7156753470226891,0.7662986537269618,-0.2497794084167931,9.434161408900685,2.6923639077543684,67.34205520764415
00:02.507,-0.7216424822956253,0.7585530491844594,-0.262893192673397,9.24899421694777,1.2263142127497837,60.73871577453505
00:02.529,-0.7167881148528402,0.7873446843939325,-0.2319270448009919,1.9075150668348886,1.0000360964607746,54.3647636891367
00:02.551,-0.7353728677380196,0.7628821606484522,-0.21043066150314121,-6.41396251530468,0.9164377506706541,53.12769917833028
00:02.573,-0.7087559591166037,0.7157775376474232,-0.25007179042539796,-18.961741423713367,2.186555123474538,53.83943299173217
00:02.595,-0.7023369058385124,0.6157059274411981,-0.25232724944525586,-28.605249086165095,6.476758157130102,54.82428713835635
00:02.617,-0.7341533457151747,0.5639118616813154,-0.2028337036586625,-27.918595655732563,10.853615327483716,58.47185849959598
00:02.639,-0.7848733239849941,0.5470208159759999,-0.2536778085365604,-19.790428368384855,12.132318215672456,60.0253150404202
00:02.661,-0.8150142112098869,0.49545656011692946,-0.2644026822819049,-7.79598657573059,11.319171388610878,56.18081525818624
00:02.683,-0.8496191614610271,0.5814784199928126,-0.27209281744879527,1.969393202124272,10.355351339255597,56.27177636243118
00:02.705,-0.8868667548984023,0.5206175293781282,-0.29911176107392246,6.577194226730991,10.672185330778644,56.15074869342071
00:02.727,-0.8471504872625054,0.48744365204196505,-0.2766041141567733,11.706234734716539,9.768839546259654,54.684084614959616
00:02.749,-0.9018361712622008,0.45934012424249565,-0.25972831424567056,17.090738955211176,5.737984379956362,53.58512474307334
00:02.771,-0.8813335316539761,0.4533218431223577,-0.22383400457724625,24.86682374616266,2.3687980366612815,50.37596493768018
00:02.793,-0.8635172055072498,0.45747081767701353,-0.23273961567730103,26.85595972848238,1.4998854032676292,47.75143446808171
00:02.815,-0.886065113650999,0.4469450694174883,-0.21367723445530376,28.685162344162652,4.256391420111191,48.24779742034289
00:02.837,-0.9189375664328758,0.46670538977739684,-0.24057554107849594,29.0061298236335,7.874470493250249,50.13619673358774
00:02.859,-0.9147237258523266,0.4489426706392667,-0.18142072216862595,26.88202893090595,8.936995964713338,50.13308194324366
00:02.881,-0.8994568669785258,0.4706715039306521,-0.21445211242845447,22.13165426983555,7.9256355287148486,47.862163395980986
00:02.903,-0.9147958755054829,0.45540200428343564,-0.18896880624890178,16.121755005384898,7.350422367680187,45.04890291534456
00:02.925,-0.8929613055014954,0.4949438177215738,-0.1602863916338796,15.222070777070298,8.933976595079445,42.663061570200966
00:02.947,-0.9256401225869829,0.41440345167968584,-0.18042512636793706,19.69956605572845,10.184355253410052,41.59990383967375
00:02.969,-0.9361408621637458,0.37733381224557994,-0.17689446752303448,23.588440061597762,9.850722135783059,40.21220242605635
00:02.991,-0.9267322403677316,0.42024397296710403,-0.21791524957023947,25.273062138482274,8.389690575133796,35.559481474915856
00:03.013,-0.91834196841187,0.48694958105437697,-0.14670966727905038,27.149915197055595,4.891897891077195,29.01290528988924
00:03.035,-0.9068774131718524,0.46622092310587004,-0.17969725782329493,26.927477553501948,2.4311864049121517,24.247607813763363
00:03.057,-0.915343817915005,0.46453228380625505,-0.17040744848470601,22.36348656579324,3.139970718234514,21.706775237728195
00:03.079,-0.9181301122272691,0.4465543056463156,-0.13630338840056974,18.936934795228762,2.1055596649481476,17.795931917555112
00:03.101,-0.9057375089240948,0.42181753248045223,-0.10358791058313326,14.225425305639451,-1.0966353432471576,13.461081214791657
