timestamp,accelX,accelY,accelZ,gyroX,gyroY,gyroZ
00:00.000,-0.97,0.41,-0.09,2.6240392000012807,-11.416492799394652,-17.565173110595456
00:00.022,-0.96,0.5766666666666667,-0.12,8.973007609199783,-25.10704938188409,-36.85781755408673
00:00.044,-0.9533333333333333,0.7633333333333334,-0.13333333333333333,-2.5335550896564114,-25.85352717193551,-64.98655430212472
00:00.066,-1.0,0.87,-0.24,-11.321824306902078,-21.205356190584403,-112.67164240066681
00:00.088,-1.0266666666666666,0.78,-0.22,-3.5665820160936916,-10.662319362023114,-141.66411481515271
00:00.109,-1.0333333333333334,0.7866666666666667,-0.18666666666666665,-3.5213399609212668,-15.079620923770696,-166.25382843429355
00:00.131,-0.94,0.82,-0.18,-15.879961365524991,-16.622598211454296,-175.4453517874228
00:00.153,-0.8799999999999999,0.7466666666666666,-0.19,-21.53898843334384,-13.994534651634094,-171.82224819542006
00:00.175,-0.8266666666666667,0.7,-0.16333333333333333,-14.315340290811585,-17.188228289482947,-172.24265051094778
00:00.197,-0.78,0.76,-0.15,-7.453628589658811,-19.58927025335968,-176.35112768542345
00:00.219,-0.7333333333333332,0.7966666666666667,-0.15666666666666665,-4.350777639082586,-21.062986715162225,-168.27940322729083
00:00.241,-0.66,0.79,-0.11,3.7927922919558736,-17.122815287261947,-161.51474778652624
00:00.263,-0.63,0.77,-0.09,28.513805272427714,-22.19809469487959,-166.76595489139092
00:00.286,-0.5166666666666664,0.9833333333333334,-0.15666666666666665,5.983261796554606,-21.770986268613015,-151.9295749924937
00:00.308,-0.46333333333333343,0.9499999999999998,-0.12333333333333324,-12.196504040235865,-6.125735266813696,-143.43744821883337
00:00.330,-0.43,0.88,-0.12,-21.0601766827689,-10.146710991575224,-144.2935402068171
00:00.352,-0.29333333333333333,0.8733333333333333,-0.1433333333333333,-11.318054135637698,-2.774280858902435,-137.95693076004443
00:00.374,-0.26666666666666666,0.9333333333333335,-0.14333333333333337,-5.293320455174998,-1.8815857697687897,-128.80744763846792
00:00.396,-0.17,0.98,-0.17,-12.28321797931634,-2.181716015253376,-122.46319451323112
00:00.418,-0.10999999999999992,0.9533333333333333,-0.16666666666666666,-10.032425734487685,0.5656300780286484,-125.75379809204371
00:00.440,-0.04333333333333316,0.9266666666666666,-0.17333333333333337,-14.496308511501315,0.6118039619493643,-121.97017725229404
00:00.462,-0.02,0.9,-0.17,-1.3798826827592943,1.4083034595815445,-115.04500456378253
00:00.484,0.05000000000000007,0.9533333333333333,-0.19333333333333336,-10.997589578166277,-3.4322587047725053,-115.39661377313298
00:00.506,0.09666666666666668,0.9199999999999999,-0.18666666666666665,1.9793399137940808,-3.7093020082967474,-110.82569405157682
00:00.528,0.17,0.96,-0.21,1.3120196000006403,-6.26810474223589,-111.90345271502066
00:00.550,0.21,0.9499999999999998,-0.19,-4.675012367818366,-2.347172432635907,-109.28549284105246
00:00.572,0.25000000000000033,0.8833333333333332,-0.19,-0.2563716459771207,-5.125301115198427,-106.34267663235825
00:00.594,0.30999999999999994,0.9300000000000003,-0.19999999999999993,-1.7305086103457044,-4.224910378744624,-105.18465934504094
00:00.616,0.31666666666666676,0.9433333333333332,-0.18666666666666665,-6.7863082758653865,-3.9671061935206975,-104.31328000012888
00:00.638,0.38999999999999985,0.8900000000000001,-0.18666666666666665,-10.511237485062594,-5.891018023550122,-103.80115354303146
00:00.660,0.44,0.87,-0.21,-22.15729652070047,-2.1124551893723167,-104.12983171698951
00:00.682,0.4533333333333334,0.8066666666666665,-0.20666666666666664,-24.06877335173588,-3.474584765033159,-100.72457296121479
00:00.704,0.5000000000000001,0.7599999999999999,-0.1933333333333333,-21.120499422998815,-4.652018805011167,-95.54215896252737
00:00.726,0.54,0.73,-0.17,-20.84527692069983,-2.816606919163089,-90.417072552321
00:00.748,0.5633333333333334,0.7266666666666666,-0.19333333333333336,-22.647418785068517,-2.932041628964855,-86.91244597651246
00:00.770,0.5966666666666668,0.6866666666666664,-0.1933333333333333,-17.814059224146607,-4.017127901101462,-80.5681928512756
00:00.792,0.65,0.71,-0.21,-16.366313458628678,-3.5207586489538607,-78.94008933841366
00:00.814,0.6399999999999999,0.6899999999999997,-0.21666666666666679,-38.749820255191324,-2.4433680241373876,-76.32595130367751
00:00.836,0.6533333333333337,0.5099999999999992,-0.23666666666666658,-22.824616834493796,-8.222799161545817,-63.59158298241894
00:00.858,0.7399999999999999,0.5200000000000009,-0.20000000000000015,-14.081589672420726,-9.153972487279995,-55.14914011877561
00:00.880,0.7099999999999999,0.64,-0.22333333333333336,-24.78510589196614,-4.74436657285259,-59.834715017293824
00:00.902,0.7300000000000003,0.5933333333333329,-0.21666666666666656,-34.489526726453654,-7.845712442860028,-50.455921541793096
00:00.924,0.78,0.53,-0.17,-41.419101510365046,-5.921800612830593,-47.23793290838987
00:00.946,0.7266666666666666,0.4099999999999997,-0.2,-49.72478880577138,-4.436540680047877,-30.322472467246346
00:00.968,0.7266666666666667,0.26333333333333286,-0.2,-28.325296709209113,-6.2219308583151856,-7.5595980010351145
00:00.990,0.75,0.27,-0.19,1.9340978586216337,-0.6348909039097127,16.659397212594776
00:01.012,0.6733333333333333,0.4133333333333335,-0.2,22.553164503459307,4.698192688931868,39.07448430868759
00:01.034,0.6933333333333336,0.506666666666667,-0.18666666666666656,20.803805036791708,0.9888906806351125,61.05005989309229
00:01.056,0.75,0.63,-0.2,-16.569902706904642,2.747346093282029,68.86189928344407
00:01.078,0.7233333333333334,0.57,-0.20666666666666664,-25.015086339092637,6.953017353726359,70.53968670632297
00:01.100,0.7433333333333334,0.5633333333333334,-0.2,-15.763086056329536,5.30614882722118,75.39342253105235
00:01.122,0.699999999999999,0.49,-0.22000000000000058,-14.14945275517919,9.084711661399078,83.76707228851872
00:01.144,0.6133333333333328,0.5066666666666672,-0.24333333333333285,0.8256675068971311,16.31862014230966,98.62638322280824
00:01.166,0.5599999999999998,0.613333333333334,-0.19666666666666657,9.157746001153868,16.41096791015105,109.35810778646182
00:01.188,0.47999999999999937,0.7600000000000009,-0.26000000000000045,9.45558953103901,18.66579257494552,115.53802182471964
00:01.210,0.4433333333333333,0.8133333333333335,-0.27666666666666684,-0.4863520931036276,18.223292854038757,120.05925763625882
00:01.232,0.4099999999999997,0.7666666666666664,-0.23666666666666658,-11.118235058626137,24.141245643209334,125.19580956416145
00:01.254,0.33,0.81,-0.27,-8.833511272418106,29.447394470430492,127.98957404280488
00:01.276,0.2766666666666667,0.8933333333333334,-0.26,-6.254714127589221,27.90441718274688,131.65471786636036
00:01.298,0.24999999999999986,0.833333333333333,-0.2533333333333333,-7.272660368969035,31.844588610647186,136.04218930477717
00:01.320,0.14,0.96,-0.29,13.878000424144705,34.099413275441655,131.77319488255458
00:01.342,0.12666666666666687,1.1066666666666651,-0.25,-5.591163985060559,30.03611149041948,127.85580966968246
00:01.364,0.11999999999999986,0.8533333333333323,-0.28333333333333355,-29.064250277025675,34.453413052167114,130.27885574281504
00:01.386,-0.040000000000001465,0.8100000000000038,-0.2899999999999998,9.252000282763515,43.749755014869166,128.34500509138738
00:01.408,-0.12333333333333285,1.130000000000002,-0.2933333333333337,22.779374779321106,33.77234826433661,123.7511543344388
00:01.430,-0.07666666666666658,1.176666666666666,-0.34666666666666685,-25.629624255185096,30.155394023881318,117.30753338916816
00:01.452,-0.16,0.81,-0.35,-6.492234917244549,30.647915452368856,122.9562117741682
00:01.474,-0.2266666666666664,0.9199999999999993,-0.27999999999999986,7.9814525666704705,27.42728704889965,116.44379772272029
00:01.496,-0.2533333333333333,1.0333333333333334,-0.3,8.954156752877848,18.738901224486668,118.54580930035901
00:01.518,-0.26,0.93,-0.32,-9.387726448280445,17.257489115364006,117.63621156312622
00:01.540,-0.3300000000000003,0.9066666666666668,-0.27666666666666595,-14.978890433340744,20.974486770980896,119.87963119235154
00:01.562,-0.37000000000000016,0.8533333333333328,-0.2700000000000003,-17.233452849433668,21.95952962795593,120.7662978941919
00:01.584,-0.48,0.83,-0.3,-2.691902282759935,26.215222595981043,127.50802229956402
00:01.606,-0.5833333333333328,1.0466666666666669,-0.3033333333333331,-10.88825461149968,13.763665232030505,113.83348152721614
00:01.628,-0.55,0.9266666666666656,-0.29,-19.72553605518205,12.07062282160467,109.45365376726356
00:01.650,-0.6300000000000004,0.8300000000000007,-0.32,-14.364352517248069,11.762796928799883,109.38103882185416
00:01.672,-0.66,0.8900000000000003,-0.29666666666666597,8.04931564942923,6.791408760003882,101.68003276923231
00:01.694,-0.6533333333333333,0.8766666666666664,-0.25,2.394058752874684,4.113323492602914,90.48204381926617
00:01.716,-0.6500000000000009,0.7699999999999996,-0.2600000000000003,-5.315941482761139,4.155649552863581,88.94948628720593
00:01.738,-0.7166666666666666,0.7433333333333333,-0.2766666666666667,4.580758086209063,3.9709540171807585,83.88172746548068
00:01.760,-0.7366666666666667,0.7766666666666668,-0.27,10.974968550580048,1.4775642854625954,73.66212935892442
00:01.782,-0.75,0.82,-0.23,-1.515608848276602,1.2697818078194254,62.77370938675596
00:01.804,-0.7399999999999997,0.7333333333333326,-0.2500000000000003,-18.10813258276766,1.8777379461087562,64.80310601898533
00:01.826,-0.7266666666666667,0.6399999999999997,-0.24333333333333315,-34.07857805863734,8.734559708333657,66.576439422666
00:01.848,-0.78,0.53,-0.23,-28.163179344841332,13.944512944053324,74.6634512377269
00:01.870,-0.8233333333333338,0.5000000000000003,-0.2500000000000003,-8.279296096555628,12.678578959893944,67.69241647843053
00:01.892,-0.8566666666666667,0.5400000000000001,-0.2766666666666667,4.8333595609219255,11.97827505376325,67.83000269078507
00:01.914,-0.8800000000000006,0.5199999999999991,-0.2600000000000002,13.052332917247846,11.485753625275638,65.99551985939127
00:01.936,-0.9233333333333335,0.46,-0.26333333333333314,22.900020259781385,5.2176488830397805,63.21704273767609
00:01.958,-0.9233333333333332,0.46666666666666684,-0.24333333333333312,30.764597517256437,1.923911830029414,58.218077022128
00:01.980,-0.91,0.46,-0.24,33.76188367243027,5.425431360682999,58.290691967537406
00:02.002,-0.9166666666666666,0.46,-0.20666666666666672,32.56296921036074,10.054363223733812,60.69462884450967
00:02.024,-0.93,0.47333333333333344,-0.1933333333333333,25.52028928851817,8.87692918375579,57.522502281891235
00:02.046,-0.91,0.48,-0.2,15.46147235517996,8.449820757489267,52.76431243796364
00:02.068,-0.9200000000000003,0.4299999999999997,-0.19,22.161066691964905,11.50884056723606,50.05845026165782
00:02.090,-0.94,0.41,-0.17666666666666658,27.959590096565382,10.993232196788174,47.169139802212584
00:02.112,-0.96,0.45,-0.18,31.2735706379463,6.556691516740305,36.6667255924832
00:02.133,-0.94,0.4566666666666666,-0.19,30.493145186221728,2.912802510664571,28.786093095954058
00:02.155,-0.9466666666666667,0.4433333333333333,-0.16333333333333314,23.774699993115032,2.958976394585261,23.42023081412725
00:02.177,-0.95,0.43,-0.14,16.569902706904642,-1.2005209819383658,16.235173057834967
